t,ax,ay,az,vx,vy,vz
0.0,0.0,0.0,1.0,0.0,0.0,0.0
0.01,0.0,0.0,0.999950000416665,0.0,0.0,0.0
0.02,0.0,0.0,0.999800006666577,0.0,0.0,0.0
0.03,0.0,0.0,0.999550033748987,0.0,0.0,0.0
0.04,0.0,0.0,0.9992001066609769,0.0,0.0,0.0
0.05,0.0,0.0,0.9987502603949661,0.0,0.0,0.0
0.06,0.0,0.0,0.998200539935204,0.0,0.0,0.0
0.07,0.0,0.0,0.997551000253279,0.0,0.0,0.0
0.08,0.0,0.0,0.996801706302619,0.0,0.0,0.0
0.09,0.0,0.0,0.9959527330119939,0.0,0.0,0.0
0.1,0.0,0.0,0.995004165278025,0.0,0.0,0.0
0.11,0.0,0.0,0.9939560979566959,0.0,0.0,0.0
0.12,0.0,0.0,0.9928086358538659,0.0,0.0,0.0
0.13,0.0,0.0,0.991561893714788,0.0,0.0,0.0
0.14,0.0,0.0,0.9902159962126369,0.0,0.0,0.0
0.15,0.0,0.0,0.988771077936042,0.0,0.0,0.0
0.16,0.0,0.0,0.9872272833756269,0.0,0.0,0.0
0.17,0.0,0.0,0.9855847669095601,0.0,0.0,0.0
0.18,0.0,0.0,0.983843692788121,0.0,0.0,0.0
0.19,0.0,0.0,0.98200423511727,0.0,0.0,0.0
0.2,0.0,0.0,0.980066577841241,0.0,0.0,0.0
0.21,0.0,0.0,0.9780309147241479,0.0,0.0,0.0
0.22,0.0,0.0,0.975897449330605,0.0,0.0,0.0
0.23,0.0,0.0,0.9736663950053739,0.0,0.0,0.0
0.24,0.0,0.0,0.971337974852029,0.0,0.0,0.0
0.25,0.0,0.0,0.968912421710644,0.0,0.0,0.0
0.26,0.0,0.0,0.966389978134513,0.0,0.0,0.0
0.27,0.0,0.0,0.96377089636589,0.0,0.0,0.0
0.28,0.0,0.0,0.961055438310771,0.0,0.0,0.0
0.29,0.0,0.0,0.958243875512697,0.0,0.0,0.0
0.3,0.0,0.0,0.955336489125606,0.0,0.0,0.0
0.31,0.0,0.0,0.9523335698857129,0.0,0.0,0.0
0.32,0.0,0.0,0.94923541808244,0.0,0.0,0.0
0.33,0.0,0.0,0.946042343528387,0.0,0.0,0.0
0.34,0.0,0.0,0.942754665528346,0.0,0.0,0.0
0.35,0.0,0.0,0.9393727128473781,0.0,0.0,0.0
0.36,0.0,0.0,0.935896823677934,0.0,0.0,0.0
0.37,0.0,0.0,0.9323273456060339,0.0,0.0,0.0
0.38,0.0,0.0,0.92866463557651,0.0,0.0,0.0
0.39,0.0,0.0,0.924909059857313,0.0,0.0,0.0
0.4,0.0,0.0,0.9210609940028849,0.0,0.0,0.0
0.41,0.0,0.0,0.917120822816605,0.0,0.0,0.0
0.42,0.0,0.0,0.9130889403123079,0.0,0.0,0.0
0.43,0.0,0.0,0.908965749674885,0.0,0.0,0.0
0.44,0.0,0.0,0.904751663219963,0.0,0.0,0.0
0.45,0.0,0.0,0.900447102352677,0.0,0.0,0.0
0.46,0.0,0.0,0.8960524975255251,0.0,0.0,0.0
0.47,0.0,0.0,0.891568288195329,0.0,0.0,0.0
0.48,0.0,0.0,0.8869949227792839,0.0,0.0,0.0
0.49,0.0,0.0,0.882332858610121,0.0,0.0,0.0
0.5,0.0,0.0,0.877582561890372,0.0,0.0,0.0
0.51,0.0,0.0,0.872744507645751,0.0,0.0,0.0
0.52,0.0,0.0,0.86781917967765,0.0,0.0,0.0
0.53,0.0,0.0,0.862807070514761,0.0,0.0,0.0
0.54,0.0,0.0,0.857708681363824,0.0,0.0,0.0
0.55,0.0,0.0,0.852524522059505,0.0,0.0,0.0
0.56,0.0,0.0,0.8472551110134161,0.0,0.0,0.0
0.5700000000000001,0.0,0.0,0.841900975162268,0.0,0.0,0.0
0.58,0.0,0.0,0.836462649915187,0.0,0.0,0.0
0.59,0.0,0.0,0.830940679100163,0.0,0.0,0.0
0.6,0.0,0.0,0.825335614909678,0.0,0.0,0.0
0.61,0.0,0.0,0.819648017845479,0.0,0.0,0.0
0.62,0.0,0.0,0.813878456662534,0.0,0.0,0.0
0.63,0.0,0.0,0.8080275083121511,0.0,0.0,0.0
0.64,0.0,0.0,0.802095757884292,0.0,0.0,0.0
0.65,0.0,0.0,0.796083798549056,0.0,0.0,0.0
0.66,0.0,0.0,0.789992231497365,0.0,0.0,0.0
0.67,0.0,0.0,0.783821665880849,0.0,0.0,0.0
0.68,0.0,0.0,0.7775727187509269,0.0,0.0,0.0
0.6900000000000001,0.0,0.0,0.7712460149971059,0.0,0.0,0.0
0.7000000000000001,0.0,0.0,0.7648421872844879,0.0,0.0,0.0
0.71,0.0,0.0,0.758361875990508,0.0,0.0,0.0
0.72,0.0,0.0,0.751805729140895,0.0,0.0,0.0
0.73,0.0,0.0,0.7451744023448701,0.0,0.0,0.0
0.74,0.0,0.0,0.7384685587295869,0.0,0.0,0.0
0.75,0.0,0.0,0.73168886887382,0.0,0.0,0.0
0.76,0.0,0.0,0.7248360107409051,0.0,0.0,0.0
0.77,0.0,0.0,0.717910669610943,0.0,0.0,0.0
0.78,0.0,0.0,0.7109135380122771,0.0,0.0,0.0
0.79,0.0,0.0,0.7038453156522361,0.0,0.0,0.0
0.8,0.0,0.0,0.696706709347165,0.0,0.0,0.0
0.81,0.0,0.0,0.6894984329517471,0.0,0.0,0.0
0.8200000000000001,0.0,0.0,0.682221207287613,0.0,0.0,0.0
0.8300000000000001,0.0,0.0,0.6748757600712669,0.0,0.0,0.0
0.84,0.0,0.0,0.667462825841308,0.0,0.0,0.0
0.85,0.0,0.0,0.659983145884982,0.0,0.0,0.0
0.86,0.0,0.0,0.652437468164052,0.0,0.0,0.0
0.87,0.0,0.0,0.644826547240001,0.0,0.0,0.0
0.88,0.0,0.0,0.63715114419858,0.0,0.0,0.0
0.89,0.0,0.0,0.629412026573696,0.0,0.0,0.0
0.9,0.0,0.0,0.621609968270664,0.0,0.0,0.0
0.91,0.0,0.0,0.613745749488811,0.0,0.0,0.0
0.92,0.0,0.0,0.605820156643462,0.0,0.0,0.0
0.93,0.0,0.0,0.597833982287298,0.0,0.0,0.0
0.94,0.0,0.0,0.5897880250310981,0.0,0.0,0.0
0.95,0.0,0.0,0.581683089463883,0.0,0.0,0.0
0.96,0.0,0.0,0.573519986072456,0.0,0.0,0.0
0.97,0.0,0.0,0.5652995311603539,0.0,0.0,0.0
0.98,0.0,0.0,0.557022546766217,0.0,0.0,0.0
0.99,0.0,0.0,0.548689860581587,0.0,0.0,0.0
1.0,0.0,0.0,0.540302305868139,0.0,0.0,0.0
1.01,0.0,0.0,0.531860721374355,0.0,0.0,0.0
1.02,0.0,0.0,0.523365951251649,0.0,0.0,0.0
1.03,0.0,0.0,0.514818844969955,0.0,0.0,0.0
1.04,0.0,0.0,0.506220257232778,0.0,0.0,0.0
1.05,0.0,0.0,0.497571047891726,0.0,0.0,0.0
1.06,0.0,0.0,0.488872081860527,0.0,0.0,0.0
1.07,0.0,0.0,0.480124229028534,0.0,0.0,0.0
1.08,0.0,0.0,0.47132836417374,0.0,0.0,0.0
1.09,0.0,0.0,0.46248536687529995,0.0,0.0,0.0
1.1,0.0,0.0,0.45359612142557704,0.0,0.0,0.0
1.11,0.0,0.0,0.44466151674170595,0.0,0.0,0.0
1.12,0.0,0.0,0.435682446276712,0.0,0.0,0.0
1.13,0.0,0.0,0.426659807930157,0.0,0.0,0.0
1.14,0.0,0.0,0.41759450395835795,0.0,0.0,0.0
1.15,0.0,0.0,0.408487440884157,0.0,0.0,0.0
1.16,0.0,0.0,0.399339529406273,0.0,0.0,0.0
1.17,0.0,0.0,0.39015168430823,0.0,0.0,0.0
1.18,0.0,0.0,0.380924824366881,0.0,0.0,0.0
1.19,0.0,0.0,0.371659872260533,0.0,0.0,0.0
1.2,0.0,0.0,0.36235775447667296,0.0,0.0,0.0
1.21,0.0,0.0,0.35301940121933,0.0,0.0,0.0
1.22,0.0,0.0,0.343645746316047,0.0,0.0,0.0
1.23,0.0,0.0,0.334237727124502,0.0,0.0,0.0
1.24,0.0,0.0,0.32479628443877595,0.0,0.0,0.0
1.25,0.0,0.0,0.315322362395268,0.0,0.0,0.0
1.26,0.0,0.0,0.305816908378289,0.0,0.0,0.0
1.27,0.0,0.0,0.296280872925318,0.0,0.0,0.0
1.28,0.0,0.0,0.286715209631955,0.0,0.0,0.0
1.29,0.0,0.0,0.277120875056557,0.0,0.0,0.0
1.3,0.0,0.0,0.267498828624587,0.0,0.0,0.0
1.31,0.0,0.0,0.257850032532669,0.0,0.0,0.0
1.32,0.0,0.0,0.24817545165237198,0.0,0.0,0.0
1.33,0.0,0.0,0.238476053433723,0.0,0.0,0.0
1.34,0.0,0.0,0.228752807808459,0.0,0.0,0.0
1.35,0.0,0.0,0.219006687093041,0.0,0.0,0.0
1.36,0.0,0.0,0.209238665891419,0.0,0.0,0.0
1.37,0.0,0.0,0.19944972099757202,0.0,0.0,0.0
1.38,0.0,0.0,0.189640831297834,0.0,0.0,0.0
1.39,0.0,0.0,0.179812977672999,0.0,0.0,0.0
1.4,0.0,0.0,0.16996714290024,0.0,0.0,0.0
1.41,0.0,0.0,0.160104311554831,0.0,0.0,0.0
1.42,0.0,0.0,0.150225469911685,0.0,0.0,0.0
1.43,0.0,0.0,0.140331605846736,0.0,0.0,0.0
1.44,0.0,0.0,0.130423708738145,0.0,0.0,0.0
1.45,0.0,0.0,0.12050276936736601,0.0,0.0,0.0
1.46,0.0,0.0,0.110569779820069,0.0,0.0,0.0
1.47,0.0,0.0,0.100625733386931,0.0,0.0,0.0
1.48,0.0,0.0,0.09067162446430899,0.0,0.0,0.0
1.49,0.0,0.0,0.08070844845479999,0.0,0.0,0.0
1.5,0.0,0.0,0.07073720166770199,0.0,0.0,0.0
1.51,0.0,0.0,0.060758881219385,0.0,0.0,0.0
1.52,0.0,0.0,0.050774484933579,0.0,0.0,0.0
1.53,0.0,0.0,0.04078501124159099,0.0,0.0,0.0
1.54,0.0,0.0,0.030791459082466,0.0,0.0,0.0
1.55,0.0,0.0,0.020794827803092,0.0,0.0,0.0
1.56,0.0,0.0,0.010796117058267002,0.0,0.0,0.0
1.57,0.0,0.0,0.0007963267107332635,0.0,0.0,0.0
1.58,-0.0,0.0,-0.009203543268808,0.0,0.0,0.0
1.59,-0.0,0.0,-0.019202492901692,0.0,0.0,0.0
1.6,-0.0,0.0,-0.029199522301288,0.0,0.0,0.0
1.61,-0.0,0.0,-0.039193631772987,0.0,0.0,0.0
1.62,-0.0,0.0,-0.04918382191417,0.0,0.0,0.0
1.63,-0.0,0.0,-0.059169093714148,0.0,0.0,0.0
1.64,-0.0,0.0,-0.069148448654062,0.0,0.0,0.0
1.65,-0.0,0.0,-0.079120888806734,0.0,0.0,0.0
1.66,-0.0,0.0,-0.089085416936459,0.0,0.0,0.0
1.67,-0.0,0.0,-0.099041036598728,0.0,0.0,0.0
1.68,-0.0,0.0,-0.108986752239871,0.0,0.0,0.0
1.69,-0.0,0.0,-0.11892156929661199,0.0,0.0,0.0
1.7,-0.0,0.0,-0.128844494295524,0.0,0.0,0.0
1.71,-0.0,0.0,-0.138754534952377,0.0,0.0,0.0
1.72,-0.0,0.0,-0.14865070027136298,0.0,0.0,0.0
1.73,-0.0,0.0,-0.158532000644197,0.0,0.0,0.0
1.74,-0.0,0.0,-0.168397447949077,0.0,0.0,0.0
1.75,-0.0,0.0,-0.17824605564949197,0.0,0.0,0.0
1.76,-0.0,0.0,-0.18807683889288,0.0,0.0,0.0
1.77,-0.0,0.0,-0.197888814609109,0.0,0.0,0.0
1.78,-0.0,0.0,-0.207681001608783,0.0,0.0,0.0
1.79,-0.0,0.0,-0.217452420681364,0.0,0.0,0.0
1.8,-0.0,0.0,-0.227202094693087,0.0,0.0,0.0
1.81,-0.0,0.0,-0.236929048684674,0.0,0.0,0.0
1.82,-0.0,0.0,-0.246632309968834,0.0,0.0,0.0
1.83,-0.0,0.0,-0.256310908227522,0.0,0.0,0.0
1.84,-0.0,0.0,-0.26596387560898,0.0,0.0,0.0
1.85,-0.0,0.0,-0.275590246824512,0.0,0.0,0.0
1.86,-0.0,0.0,-0.28518905924502,0.0,0.0,0.0
1.87,-0.0,0.0,-0.29475935299726097,0.0,0.0,0.0
1.88,-0.0,0.0,-0.304300171059833,0.0,0.0,0.0
1.89,-0.0,0.0,-0.31381055935888197,0.0,0.0,0.0
1.9,-0.0,0.0,-0.323289566863503,0.0,0.0,0.0
1.91,-0.0,0.0,-0.332736245680845,0.0,0.0,0.0
1.92,-0.0,0.0,-0.342149651150898,0.0,0.0,0.0
1.93,-0.0,0.0,-0.351528841940959,0.0,0.0,0.0
1.94,-0.0,0.0,-0.360872880139767,0.0,0.0,0.0
1.95,-0.0,0.0,-0.37018083135128604,0.0,0.0,0.0
1.96,-0.0,0.0,-0.379451764788154,0.0,0.0,0.0
1.97,-0.0,0.0,-0.388684753364752,0.0,0.0,0.0
1.98,-0.0,0.0,-0.39787887378991604,0.0,0.0,0.0
1.99,-0.0,0.0,-0.407033206659265,0.0,0.0,0.0
2.0,-0.0,0.0,-0.416146836547142,0.0,0.0,0.0
2.01,-0.0,0.0,-0.425218852098152,0.0,0.0,0.0
2.02,-0.0,0.0,-0.4342483461183,0.0,0.0,0.0
2.03,-0.0,0.0,-0.443234415665709,0.0,0.0,0.0
2.04,-0.0,0.0,-0.452176162140912,0.0,0.0,0.0
2.05,-0.0,0.0,-0.46107269137671203,0.0,0.0,0.0
2.06,-0.0,0.0,-0.469923113727602,0.0,0.0,0.0
2.07,-0.0,0.0,-0.478726544158719,0.0,0.0,0.0
2.08,-0.0,0.0,-0.487482102334359,0.0,0.0,0.0
2.09,-0.0,0.0,-0.49618891270599796,0.0,0.0,0.0
2.1,-0.0,0.0,-0.504846104599857,0.0,0.0,0.0
2.11,-0.0,0.0,-0.513452812303959,0.0,0.0,0.0
2.12,-0.0,0.0,-0.522008175154707,0.0,0.0,0.0
2.13,-0.0,0.0,-0.530511337622944,0.0,0.0,0.0
2.14,-0.0,0.0,-0.5389614493995111,0.0,0.0,0.0
2.15,-0.0,0.0,-0.547357665480271,0.0,0.0,0.0
2.16,-0.0,0.0,-0.555699146250612,0.0,0.0,0.0
2.17,-0.0,0.0,-0.56398505756941,0.0,0.0,0.0
2.18,-0.0,0.0,-0.572214570852436,0.0,0.0,0.0
2.19,-0.0,0.0,-0.580386863155222,0.0,0.0,0.0
2.2,-0.0,0.0,-0.5885011172553449,0.0,0.0,0.0
2.21,-0.0,0.0,-0.5965565217341591,0.0,0.0,0.0
2.22,-0.0,0.0,-0.604552271057929,0.0,0.0,0.0
2.23,-0.0,0.0,-0.612487565658385,0.0,0.0,0.0
2.24,-0.0,0.0,-0.6203616120126789,0.0,0.0,0.0
2.25,-0.0,0.0,-0.628173622722739,0.0,0.0,0.0
2.26,-0.0,0.0,-0.6359228165940021,0.0,0.0,0.0
2.27,-0.0,0.0,-0.64360841871354,0.0,0.0,0.0
2.28,-0.0,0.0,-0.6512296605275459,0.0,0.0,0.0
2.29,-0.0,0.0,-0.6587857799181871,0.0,0.0,0.0
2.3000000000000003,-0.0,0.0,-0.666276021279824,0.0,0.0,0.0
2.31,-0.0,0.0,-0.673699635594561,0.0,0.0,0.0
2.32,-0.0,0.0,-0.681055880507152,0.0,0.0,0.0
2.33,-0.0,0.0,-0.688344020399238,0.0,0.0,0.0
2.34,-0.0,0.0,-0.695563326462902,0.0,0.0,0.0
2.35,-0.0,0.0,-0.702713076773554,0.0,0.0,0.0
2.36,-0.0,0.0,-0.70979255636212,0.0,0.0,0.0
2.37,-0.0,0.0,-0.716801057286542,0.0,0.0,0.0
2.38,-0.0,0.0,-0.7237378787025681,0.0,0.0,0.0
2.39,-0.0,0.0,-0.730602326933837,0.0,0.0,0.0
2.4,-0.0,0.0,-0.7373937155412449,0.0,0.0,0.0
2.41,-0.0,0.0,-0.7441113653915921,0.0,0.0,0.0
2.42,-0.0,0.0,-0.7507546047254909,0.0,0.0,0.0
2.43,-0.0,0.0,-0.757322769224543,0.0,0.0,0.0
2.44,-0.0,0.0,-0.763815202077774,0.0,0.0,0.0
2.45,-0.0,0.0,-0.7702312540473071,0.0,0.0,0.0
2.46,-0.0,0.0,-0.776570283533293,0.0,0.0,0.0
2.47,-0.0,0.0,-0.782831656638065,0.0,0.0,0.0
2.48,-0.0,0.0,-0.789014747229531,0.0,0.0,0.0
2.49,-0.0,0.0,-0.7951189370037839,0.0,0.0,0.0
2.5,-0.0,0.0,-0.801143615546933,0.0,0.0,0.0
2.51,-0.0,0.0,-0.807088180396146,0.0,0.0,0.0
2.52,-0.0,0.0,-0.81295203709989,0.0,0.0,0.0
2.53,-0.0,0.0,-0.818734599277382,0.0,0.0,0.0
2.54,-0.0,0.0,-0.824435288677222,0.0,0.0,0.0
2.5500000000000003,-0.0,0.0,-0.8300535352352221,0.0,0.0,0.0
2.56,-0.0,0.0,-0.835588777131407,0.0,0.0,0.0
2.57,-0.0,0.0,-0.841040460846201,0.0,0.0,0.0
2.58,-0.0,0.0,-0.846408041215775,0.0,0.0,0.0
2.59,-0.0,0.0,-0.851690981486565,0.0,0.0,0.0
2.6,-0.0,0.0,-0.8568887533689471,0.0,0.0,0.0
2.61,-0.0,0.0,-0.8620008370900629,0.0,0.0,0.0
2.62,-0.0,0.0,-0.8670267214458021,0.0,0.0,0.0
2.63,-0.0,0.0,-0.8719659038519161,0.0,0.0,0.0
2.64,-0.0,0.0,-0.8768178903942809,0.0,0.0,0.0
2.65,-0.0,0.0,-0.881582195878286,0.0,0.0,0.0
2.66,-0.0,0.0,-0.886258343877352,0.0,0.0,0.0
2.67,-0.0,0.0,-0.8908458667805761,0.0,0.0,0.0
2.68,-0.0,0.0,-0.8953443058394921,0.0,0.0,0.0
2.69,-0.0,0.0,-0.899753211213941,0.0,0.0,0.0
2.7,-0.0,0.0,-0.904072142017061,0.0,0.0,0.0
2.71,-0.0,0.0,-0.90830066635937,0.0,0.0,0.0
2.72,-0.0,0.0,-0.912438361391958,0.0,0.0,0.0
2.73,-0.0,0.0,-0.916484813348769,0.0,0.0,0.0
2.74,-0.0,0.0,-0.9204396175879801,0.0,0.0,0.0
2.75,-0.0,0.0,-0.9243023786324631,0.0,0.0,0.0
2.76,-0.0,0.0,-0.928072710209332,0.0,0.0,0.0
2.77,-0.0,0.0,-0.931750235288572,0.0,0.0,0.0
2.78,-0.0,0.0,-0.9353345861207379,0.0,0.0,0.0
2.79,-0.0,0.0,-0.938825404273736,0.0,0.0,0.0
2.8000000000000003,-0.0,0.0,-0.9422223406686581,0.0,0.0,0.0
2.81,-0.0,0.0,-0.945525055614696,0.0,0.0,0.0
2.82,-0.0,0.0,-0.948733218843107,0.0,0.0,0.0
2.83,-0.0,0.0,-0.951846509540242,0.0,0.0,0.0
2.84,-0.0,0.0,-0.9548646163796259,0.0,0.0,0.0
2.85,-0.0,0.0,-0.95778723755309,0.0,0.0,0.0
2.86,-0.0,0.0,-0.960614080800952,0.0,0.0,0.0
2.87,-0.0,0.0,-0.9633448634412429,0.0,0.0,0.0
2.88,-0.0,0.0,-0.9659793123979741,0.0,0.0,0.0
2.89,-0.0,0.0,-0.968517164228446,0.0,0.0,0.0
2.9,-0.0,0.0,-0.97095816514959,0.0,0.0,0.0
2.91,-0.0,0.0,-0.973302071063348,0.0,0.0,0.0
2.92,-0.0,0.0,-0.9755486475810821,0.0,0.0,0.0
2.93,-0.0,0.0,-0.977697670047013,0.0,0.0,0.0
2.94,-0.0,0.0,-0.979748923560684,0.0,0.0,0.0
2.95,-0.0,0.0,-0.981702202998454,0.0,0.0,0.0
2.96,-0.0,0.0,-0.983557313034006,0.0,0.0,0.0
2.97,-0.0,0.0,-0.985314068157883,0.0,0.0,0.0
2.98,-0.0,0.0,-0.9869722926960369,0.0,0.0,0.0
2.99,-0.0,0.0,-0.9885318208273961,0.0,0.0,0.0
3.0,-0.0,0.0,-0.989992496600445,0.0,0.0,0.0
3.01,-0.0,0.0,-0.9913541739488251,0.0,0.0,0.0
3.02,-0.0,0.0,-0.992616716705937,0.0,0.0,0.0
3.03,-0.0,0.0,-0.9937799986185549,0.0,0.0,0.0
3.04,-0.0,0.0,-0.994843903359459,0.0,0.0,0.0
3.0500000000000003,-0.0,0.0,-0.995808324539061,0.0,0.0,0.0
3.06,-0.0,0.0,-0.996673165716046,0.0,0.0,0.0
3.0700000000000003,-0.0,0.0,-0.9974383404070181,0.0,0.0,0.0
3.08,-0.0,0.0,-0.9981037720951449,0.0,0.0,0.0
3.09,-0.0,0.0,-0.9986693942378131,0.0,0.0,0.0
3.1,-0.0,0.0,-0.999135150273279,0.0,0.0,0.0
3.11,-0.0,0.0,-0.999500993626327,0.0,0.0,0.0
3.12,-0.0,0.0,-0.999766887712928,0.0,0.0,0.0
3.13,-0.0,0.0,-0.999932805943893,0.0,0.0,0.0
3.14,-0.0,0.0,-0.999998731727539,0.0,0.0,0.0
3.15,-0.0,0.0,-0.999964658471342,-0.0,0.0,0.0
3.16,-0.0,0.0,-0.9998305895825981,-0.0,0.0,0.0
3.17,-0.0,0.0,-0.9995965384680849,-0.0,0.0,0.0
3.18,-0.0,0.0,-0.999262528532721,-0.0,0.0,0.0
3.19,-0.0,0.0,-0.998828593177218,-0.0,0.0,0.0
3.2,-0.0,0.0,-0.998294775794753,-0.0,0.0,0.0
3.21,-0.0,0.0,-0.997661129766617,-0.0,0.0,0.0
3.22,-0.0,0.0,-0.996927718456887,-0.0,0.0,0.0
3.23,-0.0,0.0,-0.996094615206081,-0.0,0.0,0.0
3.24,-0.0,0.0,-0.99516190332383,-0.0,0.0,0.0
3.25,-0.0,0.0,-0.994129676080546,-0.0,0.0,0.0
3.26,-0.0,0.0,-0.992998036698092,-0.0,0.0,0.0
3.27,-0.0,0.0,-0.991767098339465,-0.0,0.0,0.0
3.28,-0.0,0.0,-0.990436984097473,-0.0,0.0,0.0
3.29,-0.0,0.0,-0.9890078269824321,-0.0,0.0,0.0
3.3000000000000003,-0.0,0.0,-0.987479769908865,-0.0,0.0,0.0
3.31,-0.0,0.0,-0.9858529656812031,-0.0,0.0,0.0
3.3200000000000003,-0.0,0.0,-0.984127576978514,-0.0,0.0,0.0
3.33,-0.0,0.0,-0.982303776338231,-0.0,0.0,0.0
3.34,-0.0,0.0,-0.9803817461388981,-0.0,0.0,0.0
3.35,-0.0,0.0,-0.978361678581934,-0.0,0.0,0.0
3.36,-0.0,0.0,-0.97624377567241,-0.0,0.0,0.0
3.37,-0.0,0.0,-0.9740282491988519,-0.0,0.0,0.0
3.38,-0.0,0.0,-0.971715320712062,-0.0,0.0,0.0
3.39,-0.0,0.0,-0.9693052215029601,-0.0,0.0,0.0
3.4,-0.0,0.0,-0.966798192579461,-0.0,0.0,0.0
3.41,-0.0,0.0,-0.964194484642365,-0.0,0.0,0.0
3.42,-0.0,0.0,-0.961494358060298,-0.0,0.0,0.0
3.43,-0.0,0.0,-0.958698082843668,-0.0,0.0,0.0
3.44,-0.0,0.0,-0.9558059386176659,-0.0,0.0,0.0
3.45,-0.0,0.0,-0.952818214594304,-0.0,0.0,0.0
3.46,-0.0,0.0,-0.9497352095434961,-0.0,0.0,0.0
3.47,-0.0,0.0,-0.946557231763176,-0.0,0.0,0.0
3.48,-0.0,0.0,-0.9432845990484751,-0.0,0.0,0.0
3.49,-0.0,0.0,-0.9399176386599379,-0.0,0.0,0.0
3.5,-0.0,0.0,-0.936456687290796,-0.0,0.0,0.0
3.51,-0.0,0.0,-0.932902091033303,-0.0,0.0,0.0
3.52,-0.0,0.0,-0.9292542053441231,-0.0,0.0,0.0
3.53,-0.0,0.0,-0.925513395008784,-0.0,0.0,0.0
3.54,-0.0,0.0,-0.9216800341052029,-0.0,0.0,0.0
3.5500000000000003,-0.0,0.0,-0.9177545059662751,-0.0,0.0,0.0
3.56,-0.0,0.0,-0.913737203141544,-0.0,0.0,0.0
3.5700000000000003,-0.0,0.0,-0.909628527357944,-0.0,0.0,0.0
3.58,-0.0,0.0,-0.9054288894796291,-0.0,0.0,0.0
3.59,-0.0,0.0,-0.9011387094668879,-0.0,0.0,0.0
3.6,-0.0,0.0,-0.896758416334147,-0.0,0.0,0.0
3.61,-0.0,0.0,-0.892288448107068,-0.0,0.0,0.0
3.62,-0.0,0.0,-0.88772925177875,-0.0,0.0,0.0
3.63,-0.0,0.0,-0.883081283265026,-0.0,0.0,0.0
3.64,-0.0,0.0,-0.878345007358874,-0.0,0.0,0.0
3.65,-0.0,0.0,-0.873520897683938,-0.0,0.0,0.0
3.66,-0.0,0.0,-0.8686094366471641,-0.0,0.0,0.0
3.67,-0.0,0.0,-0.8636111153905659,-0.0,0.0,0.0
3.68,-0.0,0.0,-0.858526433742101,-0.0,0.0,0.0
3.69,-0.0,0.0,-0.853355900165699,-0.0,0.0,0.0
3.7,-0.0,0.0,-0.848100031710408,-0.0,0.0,0.0
3.71,-0.0,0.0,-0.8427593539586931,-0.0,0.0,0.0
3.72,-0.0,0.0,-0.8373344009738801,-0.0,0.0,0.0
3.73,-0.0,0.0,-0.831825715246745,-0.0,0.0,0.0
3.74,-0.0,0.0,-0.8262338476412721,-0.0,0.0,0.0
3.75,-0.0,0.0,-0.82055935733956,-0.0,0.0,0.0
3.76,-0.0,0.0,-0.814802811785912,-0.0,0.0,0.0
3.77,-0.0,0.0,-0.8089647866300851,-0.0,0.0,0.0
3.78,-0.0,0.0,-0.8030458656697299,-0.0,0.0,0.0
3.79,-0.0,0.0,-0.7970466407920109,-0.0,0.0,0.0
3.8,-0.0,0.0,-0.790967711914416,-0.0,0.0,0.0
3.81,-0.0,0.0,-0.7848096869247669,-0.0,0.0,0.0
3.82,-0.0,0.0,-0.778573181620432,-0.0,0.0,0.0
3.83,-0.0,0.0,-0.7722588196467429,-0.0,0.0,0.0
3.84,-0.0,0.0,-0.7658672324346371,-0.0,0.0,0.0
3.85,-0.0,0.0,-0.759399059137507,-0.0,0.0,0.0
3.86,-0.0,0.0,-0.752854946567295,-0.0,0.0,0.0
3.87,-0.0,0.0,-0.7462355491298021,-0.0,0.0,0.0
3.88,-0.0,0.0,-0.7395415287592579,-0.0,0.0,0.0
3.89,-0.0,0.0,-0.7327735548521199,-0.0,0.0,0.0
3.9,-0.0,0.0,-0.72593230420014,-0.0,0.0,0.0
3.91,-0.0,0.0,-0.7190184609226811,-0.0,0.0,0.0
3.92,-0.0,0.0,-0.71203271639831,-0.0,0.0,0.0
3.93,-0.0,0.0,-0.704975769195657,-0.0,0.0,0.0
3.94,-0.0,0.0,-0.697848325003563,-0.0,0.0,0.0
3.95,-0.0,0.0,-0.690651096560507,-0.0,0.0,0.0
3.96,-0.0,0.0,-0.6833848035833361,-0.0,0.0,0.0
3.97,-0.0,0.0,-0.676050172695291,-0.0,0.0,0.0
3.98,-0.0,0.0,-0.668647937353351,-0.0,0.0,0.0
3.99,-0.0,0.0,-0.661178837774879,-0.0,0.0,0.0
4.0,-0.0,0.0,-0.6536436208636109,-0.0,0.0,0.0
4.01,-0.0,0.0,-0.6460430401349581,-0.0,0.0,0.0
4.0200000000000005,-0.0,0.0,-0.6383778556406581,-0.0,0.0,0.0
4.03,-0.0,0.0,-0.630648833892775,-0.0,0.0,0.0
4.04,-0.0,0.0,-0.622856747787041,-0.0,0.0,0.0
4.05,-0.0,0.0,-0.615002376525574,-0.0,0.0,0.0
4.0600000000000005,-0.0,0.0,-0.6070865055389539,-0.0,0.0,0.0
4.07,-0.0,0.0,-0.599109926407685,-0.0,0.0,0.0
4.08,-0.0,0.0,-0.591073436783031,-0.0,0.0,0.0
4.09,-0.0,0.0,-0.582977840307259,-0.0,0.0,0.0
4.1,-0.0,0.0,-0.574823946533269,-0.0,0.0,0.0
4.11,-0.0,0.0,-0.566612570843643,-0.0,0.0,0.0
4.12,-0.0,0.0,-0.55834453436911,-0.0,0.0,0.0
4.13,-0.0,0.0,-0.550020663906425,-0.0,0.0,0.0
4.14,-0.0,0.0,-0.5416417918356979,-0.0,0.0,0.0
4.15,-0.0,0.0,-0.533208756037154,-0.0,0.0,0.0
4.16,-0.0,0.0,-0.524722399807346,-0.0,0.0,0.0
4.17,-0.0,0.0,-0.516183571774824,-0.0,0.0,0.0
4.18,-0.0,0.0,-0.507593125815277,-0.0,0.0,0.0
4.19,-0.0,0.0,-0.49895192096614,-0.0,0.0,0.0
4.2,-0.0,0.0,-0.490260821340699,-0.0,0.0,0.0
4.21,-0.0,0.0,-0.48152069604167297,-0.0,0.0,0.0
4.22,-0.0,0.0,-0.472732419074309,-0.0,0.0,0.0
4.23,-0.0,0.0,-0.46389686925898,-0.0,0.0,0.0
4.24,-0.0,0.0,-0.455014930143304,-0.0,0.0,0.0
4.25,-0.0,0.0,-0.446087489913792,-0.0,0.0,0.0
4.26,-0.0,0.0,-0.43711544130702695,-0.0,0.0,0.0
4.2700000000000005,-0.0,0.0,-0.428099681520393,-0.0,0.0,0.0
4.28,-0.0,0.0,-0.419041112122355,-0.0,0.0,0.0
4.29,-0.0,0.0,-0.409940638962305,-0.0,0.0,0.0
4.3,-0.0,0.0,-0.400799172079975,-0.0,0.0,0.0
4.3100000000000005,-0.0,0.0,-0.39161762561443403,-0.0,0.0,0.0
4.32,-0.0,0.0,-0.38239691771268003,-0.0,0.0,0.0
4.33,-0.0,0.0,-0.37313797043781705,-0.0,0.0,0.0
4.34,-0.0,0.0,-0.363841709676858,-0.0,0.0,0.0
4.3500000000000005,-0.0,0.0,-0.35450906504813096,-0.0,0.0,0.0
4.36,-0.0,0.0,-0.345140969808323,-0.0,0.0,0.0
4.37,-0.0,0.0,-0.33573836075915,-0.0,0.0,0.0
4.38,-0.0,0.0,-0.32630217815368295,-0.0,0.0,0.0
4.39,-0.0,0.0,-0.316833365602318,-0.0,0.0,0.0
4.4,-0.0,0.0,-0.307332869978419,-0.0,0.0,0.0
4.41,-0.0,0.0,-0.29780164132363296,-0.0,0.0,0.0
4.42,-0.0,0.0,-0.288240632752881,-0.0,0.0,0.0
4.43,-0.0,0.0,-0.278650800359054,-0.0,0.0,0.0
4.44,-0.0,0.0,-0.26903310311739903,-0.0,0.0,0.0
4.45,-0.0,0.0,-0.259388502789626,-0.0,0.0,0.0
4.46,-0.0,0.0,-0.24971796382772998,-0.0,0.0,0.0
4.47,-0.0,0.0,-0.240022453277549,-0.0,0.0,0.0
4.48,-0.0,0.0,-0.23030294068205798,-0.0,0.0,0.0
4.49,-0.0,0.0,-0.22056039798441798,-0.0,0.0,0.0
4.5,-0.0,0.0,-0.21079579943077903,-0.0,0.0,0.0
4.51,-0.0,0.0,-0.20101012147286001,-0.0,0.0,0.0
4.5200000000000005,-0.0,0.0,-0.1912043426703,-0.0,0.0,0.0
4.53,-0.0,0.0,-0.181379443592811,-0.0,0.0,0.0
4.54,-0.0,0.0,-0.171536406722111,-0.0,0.0,0.0
4.55,-0.0,0.0,-0.161676216353686,-0.0,0.0,0.0
4.5600000000000005,-0.0,0.0,-0.151799858498354,-0.0,0.0,0.0
4.57,-0.0,0.0,-0.141908320783673,-0.0,0.0,0.0
4.58,-0.0,0.0,-0.13200259235517,-0.0,0.0,0.0
4.59,-0.0,0.0,-0.122083663777433,-0.0,0.0,0.0
4.6000000000000005,-0.0,0.0,-0.112152526935054,-0.0,0.0,0.0
4.61,-0.0,0.0,-0.10221017493344199,-0.0,0.0,0.0
4.62,-0.0,0.0,-0.092257601999511,-0.0,0.0,0.0
4.63,-0.0,0.0,-0.082295803382262,-0.0,0.0,0.0
4.64,-0.0,0.0,-0.072325775253254,-0.0,0.0,0.0
4.65,-0.0,0.0,-0.062348514606991,-0.0,0.0,0.0
4.66,-0.0,0.0,-0.052365019161225004,-0.0,0.0,0.0
4.67,-0.0,0.0,-0.042376287257181004,-0.0,0.0,0.0
4.68,-0.0,0.0,-0.032383317759724,-0.0,0.0,0.0
4.69,-0.0,0.0,-0.022387109957477003,-0.0,0.0,0.0
4.7,-0.0,0.0,-0.01238866346289,-0.0,0.0,0.0
4.71,-0.0,0.0,-0.002388978112281,-0.0,0.0,0.0
4.72,0.0,0.0,0.007610946134147,-0.0,0.0,0.0
4.73,0.0,0.0,0.017610109292307,-0.0,0.0,0.0
4.74,0.0,0.0,0.027607511454211003,-0.0,0.0,0.0
4.75,0.0,0.0,0.037602152887976,-0.0,0.0,0.0
4.76,0.0,0.0,0.047593034137786996,-0.0,0.0,0.0
4.7700000000000005,0.0,0.0,0.057579156123846,-0.0,0.0,0.0
4.78,0.0,0.0,0.067559520242275,-0.0,0.0,0.0
4.79,0.0,0.0,0.077533128464978,-0.0,0.0,0.0
4.8,0.0,0.0,0.087498983439446,-0.0,0.0,0.0
4.8100000000000005,0.0,0.0,0.09745608858848599,-0.0,0.0,0.0
4.82,0.0,0.0,0.10740344820988,-0.0,0.0,0.0
4.83,0.0,0.0,0.117340067575955,-0.0,0.0,0.0
4.84,0.0,0.0,0.12726495303305602,-0.0,0.0,0.0
4.8500000000000005,0.0,0.0,0.137177112100908,-0.0,0.0,0.0
4.86,0.0,0.0,0.147075553571863,-0.0,0.0,0.0
4.87,0.0,0.0,0.156959287610023,-0.0,0.0,0.0
4.88,0.0,0.0,0.16682732585022098,-0.0,0.0,0.0
4.89,0.0,0.0,0.176678681496857,-0.0,0.0,0.0
4.9,0.0,0.0,0.186512369422575,-0.0,0.0,0.0
4.91,0.0,0.0,0.19632740626677697,-0.0,0.0,0.0
4.92,0.0,0.0,0.206122810533958,-0.0,0.0,0.0
4.93,0.0,0.0,0.21589760269185398,-0.0,0.0,0.0
4.94,0.0,0.0,0.22565080526939502,-0.0,0.0,0.0
4.95,0.0,0.0,0.235381442954451,-0.0,0.0,0.0
4.96,0.0,0.0,0.245088542691361,-0.0,0.0,0.0
4.97,0.0,0.0,0.254771133778242,-0.0,0.0,0.0
4.98,0.0,0.0,0.264428247964055,-0.0,0.0,0.0
4.99,0.0,0.0,0.274058919545427,-0.0,0.0,0.0
5.0,0.0,0.0,0.283662185463226,-0.0,0.0,0.0
5.01,0.0,0.0,0.293237085398863,-0.0,0.0,0.0
5.0200000000000005,0.0,0.0,0.302782661870324,-0.0,0.0,0.0
5.03,0.0,0.0,0.312297960327915,-0.0,0.0,0.0
5.04,0.0,0.0,0.321782029249721,-0.0,0.0,0.0
5.05,0.0,0.0,0.331233920236753,-0.0,0.0,0.0
5.0600000000000005,0.0,0.0,0.34065268810779004,-0.0,0.0,0.0
5.07,0.0,0.0,0.350037390993891,-0.0,0.0,0.0
5.08,0.0,0.0,0.35938709043258904,-0.0,0.0,0.0
5.09,0.0,0.0,0.368700851461733,-0.0,0.0,0.0
5.1000000000000005,0.0,0.0,0.377977742712981,-0.0,0.0,0.0
5.11,0.0,0.0,0.387216836504937,-0.0,0.0,0.0
5.12,0.0,0.0,0.39641720893592197,-0.0,0.0,0.0
5.13,0.0,0.0,0.40557793997636005,-0.0,0.0,0.0
5.14,0.0,0.0,0.414698113560781,-0.0,0.0,0.0
5.15,0.0,0.0,0.423776817679428,-0.0,0.0,0.0
5.16,0.0,0.0,0.43281314446945196,-0.0,0.0,0.0
5.17,0.0,0.0,0.441806190305705,-0.0,0.0,0.0
5.18,0.0,0.0,0.450755055891098,-0.0,0.0,0.0
5.19,0.0,0.0,0.459658846346531,-0.0,0.0,0.0
5.2,0.0,0.0,0.468516671300377,-0.0,0.0,0.0
5.21,0.0,0.0,0.477327644977521,-0.0,0.0,0.0
5.22,0.0,0.0,0.48609088628793995,-0.0,0.0,0.0
5.23,0.0,0.0,0.49480551891480495,-0.0,0.0,0.0
5.24,0.0,0.0,0.503470671402114,-0.0,0.0,0.0
5.25,0.0,0.0,0.51208547724184,-0.0,0.0,0.0
5.26,0.0,0.0,0.520649074960579,-0.0,0.0,0.0
5.2700000000000005,0.0,0.0,0.529160608205695,-0.0,0.0,0.0
5.28,0.0,0.0,0.537619225830956,-0.0,0.0,0.0
5.29,0.0,0.0,0.546024081981648,-0.0,0.0,0.0
5.3,0.0,0.0,0.55437433617916,-0.0,0.0,0.0
5.3100000000000005,0.0,0.0,0.562669153405033,-0.0,0.0,0.0
5.32,0.0,0.0,0.570907704184453,-0.0,0.0,0.0
5.33,0.0,0.0,0.57908916466921,-0.0,0.0,0.0
5.34,0.0,0.0,0.587212716720073,-0.0,0.0,0.0
5.3500000000000005,0.0,0.0,0.595277547988606,-0.0,0.0,0.0
5.36,0.0,0.0,0.6032828519984039,-0.0,0.0,0.0
5.37,0.0,0.0,0.6112278282257351,-0.0,0.0,0.0
5.38,0.0,0.0,0.619111682179598,-0.0,0.0,0.0
5.39,0.0,0.0,0.626933625481169,-0.0,0.0,0.0
5.4,0.0,0.0,0.634692875942634,-0.0,0.0,0.0
5.41,0.0,0.0,0.642388657645414,-0.0,0.0,0.0
5.42,0.0,0.0,0.6500202010177509,-0.0,0.0,0.0
5.43,0.0,0.0,0.657586742911669,-0.0,0.0,0.0
5.44,0.0,0.0,0.6650875266792821,-0.0,0.0,0.0
5.45,0.0,0.0,0.6725218022484659,-0.0,0.0,0.0
5.46,0.0,0.0,0.679888826197857,-0.0,0.0,0.0
5.47,0.0,0.0,0.6871878618312,-0.0,0.0,0.0
5.48,0.0,0.0,0.694418179251016,-0.0,0.0,0.0
5.49,0.0,0.0,0.7015790554315859,-0.0,0.0,0.0
5.5,0.0,0.0,0.70866977429126,-0.0,0.0,0.0
5.51,0.0,0.0,0.715689626764061,-0.0,0.0,0.0
5.5200000000000005,0.0,0.0,0.722637910870592,-0.0,0.0,0.0
5.53,0.0,0.0,0.729513931788232,-0.0,0.0,0.0
5.54,0.0,0.0,0.736317001920619,-0.0,0.0,0.0
5.55,0.0,0.0,0.743046440966409,-0.0,0.0,0.0
5.5600000000000005,0.0,0.0,0.749701575987307,-0.0,0.0,0.0
5.57,0.0,0.0,0.7562817414753551,-0.0,0.0,0.0
5.58,0.0,0.0,0.762786279419488,-0.0,0.0,0.0
5.59,0.0,0.0,0.7692145393713321,-0.0,0.0,0.0
5.6000000000000005,0.0,0.0,0.7755658785102499,-0.0,0.0,0.0
5.61,0.0,0.0,0.781839661707618,-0.0,0.0,0.0
5.62,0.0,0.0,0.788035261590347,-0.0,0.0,0.0
5.63,0.0,0.0,0.794152058603611,-0.0,0.0,0.0
5.64,0.0,0.0,0.800189441072805,-0.0,0.0,0.0
5.65,0.0,0.0,0.8061468052647149,-0.0,0.0,0.0
5.66,0.0,0.0,0.812023555447885,-0.0,0.0,0.0
5.67,0.0,0.0,0.817819103952194,-0.0,0.0,0.0
5.68,0.0,0.0,0.823532871227622,-0.0,0.0,0.0
5.69,0.0,0.0,0.829164285902202,-0.0,0.0,0.0
5.7,0.0,0.0,0.834712784839159,-0.0,0.0,0.0
5.71,0.0,0.0,0.8401778131932249,-0.0,0.0,0.0
5.72,0.0,0.0,0.845558824466116,-0.0,0.0,0.0
5.73,0.0,0.0,0.850855280561192,-0.0,0.0,0.0
5.74,0.0,0.0,0.856066651837255,-0.0,0.0,0.0
5.75,0.0,0.0,0.861192417161521,-0.0,0.0,0.0
5.76,0.0,0.0,0.866232063961728,-0.0,0.0,0.0
5.7700000000000005,0.0,0.0,0.8711850882773969,-0.0,0.0,0.0
5.78,0.0,0.0,0.876050994810223,-0.0,0.0,0.0
5.79,0.0,0.0,0.8808292969736089,-0.0,0.0,0.0
5.8,0.0,0.0,0.8855195169413189,-0.0,0.0,0.0
5.8100000000000005,0.0,0.0,0.890121185695265,-0.0,0.0,0.0
5.82,0.0,0.0,0.894633843072407,-0.0,0.0,0.0
5.83,0.0,0.0,0.8990570378107671,-0.0,0.0,0.0
5.84,0.0,0.0,0.9033903275945581,-0.0,0.0,0.0
5.8500000000000005,0.0,0.0,0.9076332790984131,-0.0,0.0,0.0
5.86,0.0,0.0,0.9117854680307159,-0.0,0.0,0.0
5.87,0.0,0.0,0.915846479176035,-0.0,0.0,0.0
5.88,0.0,0.0,0.919815906436639,-0.0,0.0,0.0
5.89,0.0,0.0,0.92369335287311,-0.0,0.0,0.0
5.9,0.0,0.0,0.9274784307440349,-0.0,0.0,0.0
5.91,0.0,0.0,0.931170761544783,-0.0,0.0,0.0
5.92,0.0,0.0,0.934769976045349,-0.0,0.0,0.0
5.93,0.0,0.0,0.938275714327282,-0.0,0.0,0.0
5.94,0.0,0.0,0.941687625819677,-0.0,0.0,0.0
5.95,0.0,0.0,0.945005369334227,-0.0,0.0,0.0
5.96,0.0,0.0,0.948228613099345,-0.0,0.0,0.0
5.97,0.0,0.0,0.951357034793342,-0.0,0.0,0.0
5.98,0.0,0.0,0.954390321576654,-0.0,0.0,0.0
5.99,0.0,0.0,0.95732817012313,-0.0,0.0,0.0
6.0,0.0,0.0,0.960170286650366,-0.0,0.0,0.0
6.01,0.0,0.0,0.9629163869490751,-0.0,0.0,0.0
6.0200000000000005,0.0,0.0,0.965566196411518,-0.0,0.0,0.0
6.03,0.0,0.0,0.9681194500589541,-0.0,0.0,0.0
6.04,0.0,0.0,0.970575892568149,-0.0,0.0,0.0
6.05,0.0,0.0,0.972935278296897,-0.0,0.0,0.0
6.0600000000000005,0.0,0.0,0.975197371308592,-0.0,0.0,0.0
6.07,0.0,0.0,0.9773619453958191,-0.0,0.0,0.0
6.08,0.0,0.0,0.979428784102971,-0.0,0.0,0.0
6.09,0.0,0.0,0.9813976807478999,-0.0,0.0,0.0
6.1000000000000005,0.0,0.0,0.9832684384425839,-0.0,0.0,0.0
6.11,0.0,0.0,0.985040870112811,-0.0,0.0,0.0
6.12,0.0,0.0,0.986714798516892,-0.0,0.0,0.0
6.13,0.0,0.0,0.9882900562633801,-0.0,0.0,0.0
6.140000000000001,0.0,0.0,0.9897664858278141,-0.0,0.0,0.0
6.15,0.0,0.0,0.991143939568469,-0.0,0.0,0.0
6.16,0.0,0.0,0.992422279741117,-0.0,0.0,0.0
6.17,0.0,0.0,0.993601378512806,-0.0,0.0,0.0
6.18,0.0,0.0,0.994681117974643,-0.0,0.0,0.0
6.19,0.0,0.0,0.99566139015358,-0.0,0.0,0.0
6.2,0.0,0.0,0.9965420970232169,-0.0,0.0,0.0
6.21,0.0,0.0,0.997323150513601,-0.0,0.0,0.0
6.22,0.0,0.0,0.998004472520033,-0.0,0.0,0.0
6.23,0.0,0.0,0.998585994910881,-0.0,0.0,0.0
6.24,0.0,0.0,0.99906765953439,-0.0,0.0,0.0
6.25,0.0,0.0,0.999449418224499,-0.0,0.0,0.0
6.26,0.0,0.0,0.9997312328056571,-0.0,0.0,0.0
6.2700000000000005,0.0,0.0,0.9999130750966421,-0.0,0.0,0.0
6.28,0.0,0.0,0.999994926913375,-0.0,0.0,0.0
6.29,0.0,0.0,0.9999767800707431,0.0,0.0,0.0
6.3,0.0,0.0,0.999858636383415,0.0,0.0,0.0
6.3100000000000005,0.0,0.0,0.999640507665661,0.0,0.0,0.0
6.32,0.0,0.0,0.9993224157301719,0.0,0.0,0.0
6.33,0.0,0.0,0.998904392385876,0.0,0.0,0.0
6.34,0.0,0.0,0.998386479434759,0.0,0.0,0.0
6.3500000000000005,0.0,0.0,0.997768728667684,0.0,0.0,0.0
6.36,0.0,0.0,0.997051201859213,0.0,0.0,0.0
6.37,0.0,0.0,0.9962339707614299,0.0,0.0,0.0
6.38,0.0,0.0,0.995317117096763,0.0,0.0,0.0
6.390000000000001,0.0,0.0,0.994300732549815,0.0,0.0,0.0
6.4,0.0,0.0,0.993184918758192,0.0,0.0,0.0
6.41,0.0,0.0,0.991969787302345,0.0,0.0,0.0
6.42,0.0,0.0,0.990655459694407,0.0,0.0,0.0
6.43,0.0,0.0,0.989242067366043,0.0,0.0,0.0
6.44,0.0,0.0,0.987729751655308,0.0,0.0,0.0
6.45,0.0,0.0,0.9861186637925121,0.0,0.0,0.0
6.46,0.0,0.0,0.9844089648851,0.0,0.0,0.0
6.47,0.0,0.0,0.982600825901538,0.0,0.0,0.0
6.48,0.0,0.0,0.9806944276542171,0.0,0.0,0.0
6.49,0.0,0.0,0.978689960781373,0.0,0.0,0.0
6.5,0.0,0.0,0.976587625728023,0.0,0.0,0.0
6.51,0.0,0.0,0.974387632725921,0.0,0.0,0.0
6.5200000000000005,0.0,0.0,0.972090201772533,0.0,0.0,0.0
6.53,0.0,0.0,0.96969556260904,0.0,0.0,0.0
6.54,0.0,0.0,0.9672039546973631,0.0,0.0,0.0
6.55,0.0,0.0,0.964615627196218,0.0,0.0,0.0
6.5600000000000005,0.0,0.0,0.9619308389361959,0.0,0.0,0.0
6.57,0.0,0.0,0.9591498583938871,0.0,0.0,0.0
6.58,0.0,0.0,0.956272963665027,0.0,0.0,0.0
6.59,0.0,0.0,0.953300442436693,0.0,0.0,0.0
6.6000000000000005,0.0,0.0,0.950232591958529,0.0,0.0,0.0
6.61,0.0,0.0,0.9470697190130271,0.0,0.0,0.0
6.62,0.0,0.0,0.943812139884846,0.0,0.0,0.0
6.63,0.0,0.0,0.940460180329184,0.0,0.0,0.0
6.640000000000001,0.0,0.0,0.937014175539203,0.0,0.0,0.0
6.65,0.0,0.0,0.933474470112512,0.0,0.0,0.0
6.66,0.0,0.0,0.929841418016701,0.0,0.0,0.0
6.67,0.0,0.0,0.9261153825539541,0.0,0.0,0.0
6.68,0.0,0.0,0.922296736324712,0.0,0.0,0.0
6.69,0.0,0.0,0.918385861190415,0.0,0.0,0.0
6.7,0.0,0.0,0.9143831482353191,0.0,0.0,0.0
6.71,0.0,0.0,0.910288997727382,0.0,0.0,0.0
6.72,0.0,0.0,0.906103819078245,0.0,0.0,0.0
6.73,0.0,0.0,0.901828030802283,0.0,0.0,0.0
6.74,0.0,0.0,0.897462060474762,0.0,0.0,0.0
6.75,0.0,0.0,0.8930063446890759,0.0,0.0,0.0
6.76,0.0,0.0,0.888461329013091,0.0,0.0,0.0
6.7700000000000005,0.0,0.0,0.8838274679445859,0.0,0.0,0.0
6.78,0.0,0.0,0.879105224865808,0.0,0.0,0.0
6.79,0.0,0.0,0.8742950719971281,0.0,0.0,0.0
6.8,0.0,0.0,0.8693974903498249,0.0,0.0,0.0
6.8100000000000005,0.0,0.0,0.8644129696779821,0.0,0.0,0.0
6.82,0.0,0.0,0.859342008429514,0.0,0.0,0.0
6.83,0.0,0.0,0.854185113696318,0.0,0.0,0.0
6.84,0.0,0.0,0.848942801163572,0.0,0.0,0.0
6.8500000000000005,0.0,0.0,0.8436155950581591,0.0,0.0,0.0
6.86,0.0,0.0,0.838204028096251,0.0,0.0,0.0
6.87,0.0,0.0,0.832708641430034,0.0,0.0,0.0
6.88,0.0,0.0,0.827129984593596,0.0,0.0,0.0
6.890000000000001,0.0,0.0,0.821468615447971,0.0,0.0,0.0
6.9,0.0,0.0,0.815725100125356,0.0,0.0,0.0
6.91,0.0,0.0,0.809900012972498,0.0,0.0,0.0
6.92,0.0,0.0,0.803993936493257,0.0,0.0,0.0
6.93,0.0,0.0,0.7980074612903589,0.0,0.0,0.0
6.94,0.0,0.0,0.791941186006335,0.0,0.0,0.0
6.95,0.0,0.0,0.7857957172636609,0.0,0.0,0.0
6.96,0.0,0.0,0.7795716696040871,0.0,0.0,0.0
6.97,0.0,0.0,0.773269665427194,0.0,0.0,0.0
6.98,0.0,0.0,0.766890334928147,0.0,0.0,0.0
6.99,0.0,0.0,0.760434316034681,0.0,0.0,0.0
7.0,0.0,0.0,0.7539022543433039,0.0,0.0,0.0
7.01,0.0,0.0,0.747294803054743,0.0,0.0,0.0
7.0200000000000005,0.0,0.0,0.7406126229086201,0.0,0.0,0.0
7.03,0.0,0.0,0.733856382117381,0.0,0.0,0.0
7.04,0.0,0.0,0.727026756299475,0.0,0.0,0.0
7.05,0.0,0.0,0.720124428411794,0.0,0.0,0.0
7.0600000000000005,0.0,0.0,0.713150088681372,0.0,0.0,0.0
7.07,0.0,0.0,0.7061044345363721,0.0,0.0,0.0
7.08,0.0,0.0,0.698988170536337,0.0,0.0,0.0
7.09,0.0,0.0,0.6918020083017371,0.0,0.0,0.0
7.1000000000000005,0.0,0.0,0.6845466664428059,0.0,0.0,0.0
7.11,0.0,0.0,0.6772228704876839,0.0,0.0,0.0
7.12,0.0,0.0,0.6698313528098649,0.0,0.0,0.0
7.13,0.0,0.0,0.662372852554955,0.0,0.0,0.0
7.140000000000001,0.0,0.0,0.654848115566765,0.0,0.0,0.0
7.15,0.0,0.0,0.647257894312723,0.0,0.0,0.0
7.16,0.0,0.0,0.63960294780863,0.0,0.0,0.0
7.17,0.0,0.0,0.6318840415427571,0.0,0.0,0.0
7.18,0.0,0.0,0.624101947399298,0.0,0.0,0.0
7.19,0.0,0.0,0.616257443581182,0.0,0.0,0.0
7.2,0.0,0.0,0.608351314532254,0.0,0.0,0.0
7.21,0.0,0.0,0.600384350858831,0.0,0.0,0.0
7.22,0.0,0.0,0.59235734925064,0.0,0.0,0.0
7.23,0.0,0.0,0.5842711124011539,0.0,0.0,0.0
7.24,0.0,0.0,0.576126448927319,0.0,0.0,0.0
7.25,0.0,0.0,0.567924173288694,0.0,0.0,0.0
7.26,0.0,0.0,0.55966510570601,0.0,0.0,0.0
7.27,0.0,0.0,0.55135007207914,0.0,0.0,0.0
7.28,0.0,0.0,0.54297990390452,0.0,0.0,0.0
7.29,0.0,0.0,0.534555438191991,0.0,0.0,0.0
7.3,0.0,0.0,0.526077517381105,0.0,0.0,0.0
7.31,0.0,0.0,0.517546989256876,0.0,0.0,0.0
7.32,0.0,0.0,0.50896470686501,0.0,0.0,0.0
7.33,0.0,0.0,0.500331528426593,0.0,0.0,0.0
7.34,0.0,0.0,0.49164831725227504,0.0,0.0,0.0
7.35,0.0,0.0,0.482915941655937,0.0,0.0,0.0
7.36,0.0,0.0,0.474135274867862,0.0,0.0,0.0
7.37,0.0,0.0,0.46530719494741196,0.0,0.0,0.0
7.38,0.0,0.0,0.45643258469522197,0.0,0.0,0.0
7.390000000000001,0.0,0.0,0.447512331564921,0.0,0.0,0.0
7.4,0.0,0.0,0.43854732757439,0.0,0.0,0.0
7.41,0.0,0.0,0.42953846921655603,0.0,0.0,0.0
7.42,0.0,0.0,0.420486657369749,0.0,0.0,0.0
7.43,0.0,0.0,0.411392797207608,0.0,0.0,0.0
7.44,0.0,0.0,0.402257798108572,0.0,0.0,0.0
7.45,0.0,0.0,0.39308257356494003,0.0,0.0,0.0
7.46,0.0,0.0,0.38386804109151995,0.0,0.0,0.0
7.47,0.0,0.0,0.37461512213387804,0.0,0.0,0.0
7.48,0.0,0.0,0.365324741976201,0.0,0.0,0.0
7.49,0.0,0.0,0.355997829648764,0.0,0.0,0.0
7.5,0.0,0.0,0.34663531783502505,0.0,0.0,0.0
7.51,0.0,0.0,0.337238142778365,0.0,0.0,0.0
7.52,0.0,0.0,0.32780724418845697,0.0,0.0,0.0
7.53,0.0,0.0,0.318343565147303,0.0,0.0,0.0
7.54,0.0,0.0,0.308848052014919,0.0,0.0,0.0
7.55,0.0,0.0,0.29932165433470703,0.0,0.0,0.0
7.56,0.0,0.0,0.289765324738494,0.0,0.0,0.0
7.57,0.0,0.0,0.280180018851278,0.0,0.0,0.0
7.58,0.0,0.0,0.27056669519566,0.0,0.0,0.0
7.59,0.0,0.0,0.26092631509599296,0.0,0.0,0.0
7.6,0.0,0.0,0.251259842582254,0.0,0.0,0.0
7.61,0.0,0.0,0.241568244293641,0.0,0.0,0.0
7.62,0.0,0.0,0.231852489381904,0.0,0.0,0.0
7.63,0.0,0.0,0.222113549414438,0.0,0.0,0.0
7.640000000000001,0.0,0.0,0.212352398277125,0.0,0.0,0.0
7.65,0.0,0.0,0.202570012076944,0.0,0.0,0.0
7.66,0.0,0.0,0.19276736904436298,0.0,0.0,0.0
7.67,0.0,0.0,0.18294544943551702,0.0,0.0,0.0
7.68,0.0,0.0,0.173105235434181,0.0,0.0,0.0
7.69,0.0,0.0,0.163247711053555,0.0,0.0,0.0
7.7,0.0,0.0,0.15337386203786402,0.0,0.0,0.0
7.71,0.0,0.0,0.14348467576378,0.0,0.0,0.0
7.72,0.0,0.0,0.13358114114169,0.0,0.0,0.0
7.73,0.0,0.0,0.123664248516802,0.0,0.0,0.0
7.74,0.0,0.0,0.11373498957011599,0.0,0.0,0.0
7.75,0.0,0.0,0.103794357219252,0.0,0.0,0.0
7.76,0.0,0.0,0.093843345519162,0.0,0.0,0.0
7.77,0.0,0.0,0.08388294956272101,0.0,0.0,0.0
7.78,0.0,0.0,0.073914165381227,0.0,0.0,0.0
7.79,0.0,0.0,0.06393798984479,0.0,0.0,0.0
7.8,0.0,0.0,0.053955420562649,0.0,0.0,0.0
7.81,0.0,0.0,0.043967455783415,0.0,0.0,0.0
7.82,0.0,0.0,0.033975094295242,0.0,0.0,0.0
7.83,0.0,0.0,0.023979335325952,0.0,0.0,0.0
7.84,0.0,0.0,0.013981178443112,0.0,0.0,0.0
7.85,0.0,0.0,0.003981623454078,0.0,0.0,0.0
7.86,-0.0,0.0,-0.0060183296939810005,0.0,0.0,0.0
7.87,-0.0,0.0,-0.016017681014087,0.0,0.0,0.0
7.88,-0.0,0.0,-0.02601543057944,0.0,0.0,0.0
7.890000000000001,-0.0,0.0,-0.036010578623416,0.0,0.0,0.0
7.9,-0.0,0.0,-0.046002125639536,0.0,0.0,0.0
7.91,-0.0,0.0,-0.055989072481427996,0.0,0.0,0.0
7.92,-0.0,0.0,-0.065970420462729,0.0,0.0,0.0
7.930000000000001,-0.0,0.0,-0.07594517145696,0.0,0.0,0.0
7.94,-0.0,0.0,-0.085912327997332,0.0,0.0,0.0
7.95,-0.0,0.0,-0.095870893376497,0.0,0.0,0.0
7.96,-0.0,0.0,-0.105819871746217,0.0,0.0,0.0
7.97,-0.0,0.0,-0.115758268216945,0.0,0.0,0.0
7.98,-0.0,0.0,-0.125685088957318,0.0,0.0,0.0
7.99,-0.0,0.0,-0.13559934129353,0.0,0.0,0.0
8.0,-0.0,0.0,-0.14550003380861298,0.0,0.0,0.0
8.01,-0.0,0.0,-0.155386176441564,0.0,0.0,0.0
8.02,-0.0,0.0,-0.16525678058636,0.0,0.0,0.0
8.03,-0.0,0.0,-0.17511085919081001,0.0,0.0,0.0
8.040000000000001,-0.0,0.0,-0.184947426855268,0.0,0.0,0.0
8.05,-0.0,0.0,-0.194765499931161,0.0,0.0,0.0
8.06,-0.0,0.0,-0.204564096619365,0.0,0.0,0.0
8.07,-0.0,0.0,-0.21434223706837702,0.0,0.0,0.0
8.08,-0.0,0.0,-0.224098943472299,0.0,0.0,0.0
8.09,-0.0,0.0,-0.233833240168623,0.0,0.0,0.0
8.1,-0.0,0.0,-0.243544153735791,0.0,0.0,0.0
8.11,-0.0,0.0,-0.25323071309053696,0.0,0.0,0.0
8.120000000000001,-0.0,0.0,-0.262891949585002,0.0,0.0,0.0
8.13,-0.0,0.0,-0.272526897103582,0.0,0.0,0.0
8.14,-0.0,0.0,-0.282134592159556,0.0,0.0,0.0
8.15,-0.0,0.0,-0.291714073991426,0.0,0.0,0.0
8.16,-0.0,0.0,-0.30126438465899097,0.0,0.0,0.0
8.17,-0.0,0.0,-0.310784569139143,0.0,0.0,0.0
8.18,-0.0,0.0,-0.32027367542136803,0.0,0.0,0.0
8.19,-0.0,0.0,-0.329730754602944,0.0,0.0,0.0
8.2,-0.0,0.0,-0.339154860983834,0.0,0.0,0.0
8.21,-0.0,0.0,-0.348545052161256,0.0,0.0,0.0
8.22,-0.0,0.0,-0.357900389123913,0.0,0.0,0.0
8.23,-0.0,0.0,-0.367219936345908,0.0,0.0,0.0
8.24,-0.0,0.0,-0.376502761880283,0.0,0.0,0.0
8.25,-0.0,0.0,-0.385747937452221,0.0,0.0,0.0
8.26,-0.0,0.0,-0.39495453855186996,0.0,0.0,0.0
8.27,-0.0,0.0,-0.404121644526792,0.0,0.0,0.0
8.28,-0.0,0.0,-0.413248338674027,0.0,0.0,0.0
8.290000000000001,-0.0,0.0,-0.42233370833176903,0.0,0.0,0.0
8.3,-0.0,0.0,-0.43137684497062,0.0,0.0,0.0
8.31,-0.0,0.0,-0.440376844284454,0.0,0.0,0.0
8.32,-0.0,0.0,-0.449332806280838,0.0,0.0,0.0
8.33,-0.0,0.0,-0.458243835371038,0.0,0.0,0.0
8.34,-0.0,0.0,-0.46710904045956797,0.0,0.0,0.0
8.35,-0.0,0.0,-0.475927535033309,0.0,0.0,0.0
8.36,-0.0,0.0,-0.484698437250152,0.0,0.0,0.0
8.370000000000001,-0.0,0.0,-0.493420870027185,0.0,0.0,0.0
8.38,-0.0,0.0,-0.502093961128396,0.0,0.0,0.0
8.39,-0.0,0.0,-0.510716843251905,0.0,0.0,0.0
8.4,-0.0,0.0,-0.519288654116685,0.0,0.0,0.0
8.41,-0.0,0.0,-0.527808536548792,0.0,0.0,0.0
8.42,-0.0,0.0,-0.536275638567084,0.0,0.0,0.0
8.43,-0.0,0.0,-0.544689113468413,0.0,0.0,0.0
8.44,-0.0,0.0,-0.553048119912302,0.0,0.0,0.0
8.45,-0.0,0.0,-0.561351822005071,0.0,0.0,0.0
8.46,-0.0,0.0,-0.569599389383433,0.0,0.0,0.0
8.47,-0.0,0.0,-0.57778999729752,0.0,0.0,0.0
8.48,-0.0,0.0,-0.585922826693367,0.0,0.0,0.0
8.49,-0.0,0.0,-0.593997064294812,0.0,0.0,0.0
8.5,-0.0,0.0,-0.602011902684823,0.0,0.0,0.0
8.51,-0.0,0.0,-0.609966540386241,0.0,0.0,0.0
8.52,-0.0,0.0,-0.617860181941924,0.0,0.0,0.0
8.53,-0.0,0.0,-0.625692037994295,0.0,0.0,0.0
8.540000000000001,-0.0,0.0,-0.633461325364276,0.0,0.0,0.0
8.55,-0.0,0.0,-0.641167267129601,0.0,0.0,0.0
8.56,-0.0,0.0,-0.648809092702518,0.0,0.0,0.0
8.57,-0.0,0.0,-0.656386037906838,0.0,0.0,0.0
8.58,-0.0,0.0,-0.6638973450543529,0.0,0.0,0.0
8.59,-0.0,0.0,-0.671342263020608,0.0,0.0,0.0
8.6,-0.0,0.0,-0.6787200473200119,0.0,0.0,0.0
8.61,-0.0,0.0,-0.6860299601802821,0.0,0.0,0.0
8.620000000000001,-0.0,0.0,-0.693271270616225,0.0,0.0,0.0
8.63,-0.0,0.0,-0.7004432545028281,0.0,0.0,0.0
8.64,-0.0,0.0,-0.707545194647683,0.0,0.0,0.0
8.65,-0.0,0.0,-0.714576380862691,0.0,0.0,0.0
8.66,-0.0,0.0,-0.721536110035092,0.0,0.0,0.0
8.67,-0.0,0.0,-0.728423686197768,0.0,0.0,0.0
8.68,-0.0,0.0,-0.735238420598841,0.0,0.0,0.0
8.69,-0.0,0.0,-0.7419796317705509,0.0,0.0,0.0
8.700000000000001,-0.0,0.0,-0.748646645597399,0.0,0.0,0.0
8.71,-0.0,0.0,-0.755238795383557,0.0,0.0,0.0
8.72,-0.0,0.0,-0.7617554219195399,0.0,0.0,0.0
8.73,-0.0,0.0,-0.7681958735481249,0.0,0.0,0.0
8.74,-0.0,0.0,-0.7745595062295161,0.0,0.0,0.0
8.75,-0.0,0.0,-0.7808456836057489,0.0,0.0,0.0
8.76,-0.0,0.0,-0.7870537770643229,0.0,0.0,0.0
8.77,-0.0,0.0,-0.793183165801067,0.0,0.0,0.0
8.78,-0.0,0.0,-0.799233236882215,0.0,0.0,0.0
8.790000000000001,-0.0,0.0,-0.805203385305701,0.0,0.0,0.0
8.8,-0.0,0.0,-0.8110930140616559,0.0,0.0,0.0
8.81,-0.0,0.0,-0.8169015341921131,0.0,0.0,0.0
8.82,-0.0,0.0,-0.8226283648499,0.0,0.0,0.0
8.83,-0.0,0.0,-0.828272933356724,0.0,0.0,0.0
8.84,-0.0,0.0,-0.833834675260437,0.0,0.0,0.0
8.85,-0.0,0.0,-0.839313034391483,0.0,0.0,0.0
8.86,-0.0,0.0,-0.844707462918516,0.0,0.0,0.0
8.870000000000001,-0.0,0.0,-0.850017421403179,0.0,0.0,0.0
8.88,-0.0,0.0,-0.8552423788540451,0.0,0.0,0.0
8.89,-0.0,0.0,-0.8603818127797259,0.0,0.0,0.0
8.9,-0.0,0.0,-0.8654352092411121,0.0,0.0,0.0
8.91,-0.0,0.0,-0.870402062902767,0.0,0.0,0.0
8.92,-0.0,0.0,-0.875281877083464,0.0,0.0,0.0
8.93,-0.0,0.0,-0.8800741638058519,0.0,0.0,0.0
8.94,-0.0,0.0,-0.8847784438452521,0.0,0.0,0.0
8.950000000000001,-0.0,0.0,-0.8893942467775819,0.0,0.0,0.0
8.96,-0.0,0.0,-0.893921111026392,0.0,0.0,0.0
8.97,-0.0,0.0,-0.8983585839090311,0.0,0.0,0.0
8.98,-0.0,0.0,-0.9027062216819091,0.0,0.0,0.0
8.99,-0.0,0.0,-0.906963589584872,0.0,0.0,0.0
9.0,-0.0,0.0,-0.911130261884677,0.0,0.0,0.0
9.01,-0.0,0.0,-0.915205821917565,0.0,0.0,0.0
9.02,-0.0,0.0,-0.9191898621309311,0.0,0.0,0.0
9.03,-0.0,0.0,-0.9230819841240739,0.0,0.0,0.0
9.04,-0.0,0.0,-0.926881798688036,0.0,0.0,0.0
9.05,-0.0,0.0,-0.9305889258445279,0.0,0.0,0.0
9.06,-0.0,0.0,-0.9342029948839239,0.0,0.0,0.0
9.07,-0.0,0.0,-0.9377236444023309,0.0,0.0,0.0
9.08,-0.0,0.0,-0.941150522337732,0.0,0.0,0.0
9.09,-0.0,0.0,-0.9444832860051889,0.0,0.0,0.0
9.1,-0.0,0.0,-0.947721602131111,0.0,0.0,0.0
9.11,-0.0,0.0,-0.950865146886587,0.0,0.0,0.0
9.12,-0.0,0.0,-0.9539136059197589,0.0,0.0,0.0
9.13,-0.0,0.0,-0.9568666743872629,0.0,0.0,0.0
9.14,-0.0,0.0,-0.959724056984716,0.0,0.0,0.0
9.15,-0.0,0.0,-0.9624854679762369,0.0,0.0,0.0
9.16,-0.0,0.0,-0.965150631223029,0.0,0.0,0.0
9.17,-0.0,0.0,-0.967719280210989,0.0,0.0,0.0
9.18,-0.0,0.0,-0.970191158077357,0.0,0.0,0.0
9.19,-0.0,0.0,-0.972566017636407,0.0,0.0,0.0
9.2,-0.0,0.0,-0.974843621404164,0.0,0.0,0.0
9.21,-0.0,0.0,-0.977023741622146,0.0,0.0,0.0
9.22,-0.0,0.0,-0.97910616028015,0.0,0.0,0.0
9.23,-0.0,0.0,-0.981090669138045,0.0,0.0,0.0
9.24,-0.0,0.0,-0.982977069746599,0.0,0.0,0.0
9.25,-0.0,0.0,-0.984765173467323,0.0,0.0,0.0
9.26,-0.0,0.0,-0.986454801491336,0.0,0.0,0.0
9.27,-0.0,0.0,-0.988045784857242,0.0,0.0,0.0
9.28,-0.0,0.0,-0.9895379644680311,0.0,0.0,0.0
9.29,-0.0,0.0,-0.990931191106986,0.0,0.0,0.0
9.3,-0.0,0.0,-0.992225325452603,0.0,0.0,0.0
9.31,-0.0,0.0,-0.993420238092527,0.0,0.0,0.0
9.32,-0.0,0.0,-0.994515809536489,0.0,0.0,0.0
9.33,-0.0,0.0,-0.9955119302282569,0.0,0.0,0.0
9.34,-0.0,0.0,-0.996408500556593,0.0,0.0,0.0
9.35,-0.0,0.0,-0.9972054308652121,0.0,0.0,0.0
9.36,-0.0,0.0,-0.9979026414617451,0.0,0.0,0.0
9.37,-0.0,0.0,-0.998500062625715,0.0,0.0,0.0
9.38,-0.0,0.0,-0.998997634615503,0.0,0.0,0.0
9.39,-0.0,0.0,-0.999395307674325,0.0,0.0,0.0
9.4,-0.0,0.0,-0.9996930420352059,0.0,0.0,0.0
9.41,-0.0,0.0,-0.999890807924958,0.0,0.0,0.0
9.42,-0.0,0.0,-0.999988585567158,0.0,0.0,0.0
9.43,-0.0,0.0,-0.9999863651841211,-0.0,0.0,0.0
9.44,-0.0,0.0,-0.999884146997886,-0.0,0.0,0.0
9.45,-0.0,0.0,-0.999681941230185,-0.0,0.0,0.0
9.46,-0.0,0.0,-0.999379768101426,-0.0,0.0,0.0
9.47,-0.0,0.0,-0.9989776578286701,-0.0,0.0,0.0
9.48,-0.0,0.0,-0.998475650622611,-0.0,0.0,0.0
9.49,-0.0,0.0,-0.9978737966835489,-0.0,0.0,0.0
9.5,-0.0,0.0,-0.997172156196378,-0.0,0.0,0.0
9.51,-0.0,0.0,-0.996370799324561,-0.0,0.0,0.0
9.52,-0.0,0.0,-0.995469806203118,-0.0,0.0,0.0
9.53,-0.0,0.0,-0.994469266930611,-0.0,0.0,0.0
9.54,-0.0,0.0,-0.9933692815601309,-0.0,0.0,0.0
9.55,-0.0,0.0,-0.9921699600893009,-0.0,0.0,0.0
9.56,-0.0,0.0,-0.990871422449267,-0.0,0.0,0.0
9.57,-0.0,0.0,-0.989473798492712,-0.0,0.0,0.0
9.58,-0.0,0.0,-0.9879772279808661,-0.0,0.0,0.0
9.59,-0.0,0.0,-0.986381860569534,-0.0,0.0,0.0
9.6,-0.0,0.0,-0.984687855794127,-0.0,0.0,0.0
9.61,-0.0,0.0,-0.982895383053711,-0.0,0.0,0.0
9.62,-0.0,0.0,-0.981004621594066,-0.0,0.0,0.0
9.63,-0.0,0.0,-0.979015760489763,-0.0,0.0,0.0
9.64,-0.0,0.0,-0.976928998625255,-0.0,0.0,0.0
9.65,-0.0,0.0,-0.974744544674989,-0.0,0.0,0.0
9.66,-0.0,0.0,-0.97246261708254,-0.0,0.0,0.0
9.67,-0.0,0.0,-0.970083444038766,-0.0,0.0,0.0
9.68,-0.0,0.0,-0.9676072634589881,-0.0,0.0,0.0
9.69,-0.0,0.0,-0.9650343229592,-0.0,0.0,0.0
9.7,-0.0,0.0,-0.962364879831309,-0.0,0.0,0.0
9.71,-0.0,0.0,-0.9595992010174039,-0.0,0.0,0.0
9.72,-0.0,0.0,-0.95673756308306,-0.0,0.0,0.0
9.73,-0.0,0.0,-0.953780252189686,-0.0,0.0,0.0
9.74,-0.0,0.0,-0.950727564065908,-0.0,0.0,0.0
9.75,-0.0,0.0,-0.947579803977993,-0.0,0.0,0.0
9.76,-0.0,0.0,-0.944337286699328,-0.0,0.0,0.0
9.77,-0.0,0.0,-0.941000336478937,-0.0,0.0,0.0
9.78,-0.0,0.0,-0.9375692870090641,-0.0,0.0,0.0
9.79,-0.0,0.0,-0.9340444813917941,-0.0,0.0,0.0
9.8,-0.0,0.0,-0.930426272104753,-0.0,0.0,0.0
9.81,-0.0,0.0,-0.9267150209658539,-0.0,0.0,0.0
9.82,-0.0,0.0,-0.922911099097119,-0.0,0.0,0.0
9.83,-0.0,0.0,-0.919014886887564,-0.0,0.0,0.0
9.84,-0.0,0.0,-0.9150267739551631,-0.0,0.0,0.0
9.85,-0.0,0.0,-0.910947159107887,-0.0,0.0,0.0
9.86,-0.0,0.0,-0.90677645030382,-0.0,0.0,0.0
9.87,-0.0,0.0,-0.902515064610367,-0.0,0.0,0.0
9.88,-0.0,0.0,-0.898163428162546,-0.0,0.0,0.0
9.89,-0.0,0.0,-0.8937219761203761,-0.0,0.0,0.0
9.9,-0.0,0.0,-0.889191152625361,-0.0,0.0,0.0
9.91,-0.0,0.0,-0.884571410756072,-0.0,0.0,0.0
9.92,-0.0,0.0,-0.8798632124828489,-0.0,0.0,0.0
9.93,-0.0,0.0,-0.875067028621594,-0.0,0.0,0.0
9.94,-0.0,0.0,-0.870183338786697,-0.0,0.0,0.0
9.95,-0.0,0.0,-0.8652126313430709,-0.0,0.0,0.0
9.96,-0.0,0.0,-0.860155403357319,-0.0,0.0,0.0
9.97,-0.0,0.0,-0.855012160548026,-0.0,0.0,0.0
9.98,-0.0,0.0,-0.8497834172351849,-0.0,0.0,0.0
9.99,-0.0,0.0,-0.844469696288772,-0.0,0.0,0.0
