t	ax	ay	az
0.0	0.1	0.0	0.0
0.01	0.0999950000416665	0.0	0.0
0.02	0.0999800006666577	0.0	0.0
0.03	0.0999550033748987	0.0	0.0
0.04	0.0999200106660977	0.0	0.0
0.05	0.0998750260394966	0.0	0.0
0.06	0.0998200539935204	0.0	0.0
0.07	0.0997551000253279	0.0	0.0
0.08	0.0996801706302619	0.0	0.0
0.09	0.0995952733011994	0.0	0.0
0.1	0.0995004165278025	0.0	0.0
0.11	0.0993956097956696	0.0	0.0
0.12	0.0992808635853866	0.0	0.0
0.13	0.0991561893714788	0.0	0.0
0.14	0.0990215996212637	0.0	0.0
0.15	0.0988771077936042	0.0	0.0
0.16	0.0987227283375627	0.0	0.0
0.17	0.098558476690956	0.0	0.0
0.18	0.0983843692788121	0.0	0.0
0.19	0.098200423511727	0.0	0.0
0.2	0.0980066577841241	0.0	0.0
0.21	0.0978030914724148	0.0	0.0
0.22	0.0975897449330605	0.0	0.0
0.23	0.0973666395005374	0.0	0.0
0.24	0.0971337974852029	0.0	0.0
0.25	0.0968912421710644	0.0	0.0
0.26	0.0966389978134513	0.0	0.0
0.27	0.096377089636589	0.0	0.0
0.28	0.0961055438310771	0.0	0.0
0.29	0.0958243875512697	0.0	0.0
0.3	0.0955336489125606	0.0	0.0
0.31	0.0952333569885713	0.0	0.0
0.32	0.094923541808244	0.0	0.0
0.33	0.0946042343528387	0.0	0.0
0.34	0.0942754665528346	0.0	0.0
0.35	0.0939372712847378	0.0	0.0
0.36	0.0935896823677934	0.0	0.0
0.37	0.0932327345606034	0.0	0.0
0.38	0.092866463557651	0.0	0.0
0.39	0.0924909059857313	0.0	0.0
0.4	0.0921060994002885	0.0	0.0
0.41	0.0917120822816605	0.0	0.0
0.42	0.0913088940312308	0.0	0.0
0.43	0.0908965749674885	0.0	0.0
0.44	0.0904751663219963	0.0	0.0
0.45	0.0900447102352677	0.0	0.0
0.46	0.0896052497525525	0.0	0.0
0.47	0.0891568288195329	0.0	0.0
0.48	0.0886994922779284	0.0	0.0
0.49	0.0882332858610121	0.0	0.0
0.5	0.0877582561890372	0.0	0.0
0.51	0.0872744507645751	0.0	0.0
0.52	0.086781917967765	0.0	0.0
0.53	0.0862807070514761	0.0	0.0
0.54	0.0857708681363824	0.0	0.0
0.55	0.0852524522059505	0.0	0.0
0.56	0.0847255111013416	0.0	0.0
0.5700000000000001	0.0841900975162268	0.0	0.0
0.58	0.0836462649915187	0.0	0.0
0.59	0.0830940679100163	0.0	0.0
0.6	0.0825335614909678	0.0	0.0
0.61	0.0819648017845479	0.0	0.0
0.62	0.0813878456662534	0.0	0.0
0.63	0.0808027508312151	0.0	0.0
0.64	0.0802095757884292	0.0	0.0
0.65	0.0796083798549056	0.0	0.0
0.66	0.0789992231497365	0.0	0.0
0.67	0.0783821665880849	0.0	0.0
0.68	0.0777572718750927	0.0	0.0
0.6900000000000001	0.0771246014997106	0.0	0.0
0.7000000000000001	0.0764842187284488	0.0	0.0
0.71	0.0758361875990508	0.0	0.0
0.72	0.0751805729140895	0.0	0.0
0.73	0.074517440234487	0.0	0.0
0.74	0.0738468558729587	0.0	0.0
0.75	0.073168886887382	0.0	0.0
0.76	0.0724836010740905	0.0	0.0
0.77	0.0717910669610943	0.0	0.0
0.78	0.0710913538012277	0.0	0.0
0.79	0.0703845315652236	0.0	0.0
0.8	0.0696706709347165	0.0	0.0
0.81	0.0689498432951747	0.0	0.0
0.8200000000000001	0.0682221207287613	0.0	0.0
0.8300000000000001	0.0674875760071267	0.0	0.0
0.84	0.0667462825841308	0.0	0.0
0.85	0.0659983145884982	0.0	0.0
0.86	0.0652437468164052	0.0	0.0
0.87	0.0644826547240001	0.0	0.0
0.88	0.063715114419858	0.0	0.0
0.89	0.0629412026573696	0.0	0.0
0.9	0.0621609968270664	0.0	0.0
0.91	0.0613745749488811	0.0	0.0
0.92	0.0605820156643462	0.0	0.0
0.93	0.0597833982287298	0.0	0.0
0.94	0.0589788025031098	0.0	0.0
0.95	0.0581683089463883	0.0	0.0
0.96	0.0573519986072456	0.0	0.0
0.97	0.0565299531160354	0.0	0.0
0.98	0.0557022546766217	0.0	0.0
0.99	0.0548689860581587	0.0	0.0
1.0	0.0540302305868139	0.0	0.0
1.01	0.0531860721374355	0.0	0.0
1.02	0.0523365951251649	0.0	0.0
1.03	0.0514818844969955	0.0	0.0
1.04	0.0506220257232778	0.0	0.0
1.05	0.0497571047891726	0.0	0.0
1.06	0.0488872081860527	0.0	0.0
1.07	0.0480124229028534	0.0	0.0
1.08	0.047132836417374	0.0	0.0
1.09	0.04624853668753	0.0	0.0
1.1	0.0453596121425577	0.0	0.0
1.11	0.0444661516741706	0.0	0.0
1.12	0.0435682446276712	0.0	0.0
1.13	0.0426659807930157	0.0	0.0
1.14	0.0417594503958358	0.0	0.0
1.15	0.0408487440884157	0.0	0.0
1.16	0.0399339529406273	0.0	0.0
1.17	0.039015168430823	0.0	0.0
1.18	0.0380924824366881	0.0	0.0
1.19	0.0371659872260533	0.0	0.0
1.2	0.0362357754476673	0.0	0.0
1.21	0.035301940121933	0.0	0.0
1.22	0.0343645746316047	0.0	0.0
1.23	0.0334237727124502	0.0	0.0
1.24	0.0324796284438776	0.0	0.0
1.25	0.0315322362395268	0.0	0.0
1.26	0.0305816908378289	0.0	0.0
1.27	0.0296280872925318	0.0	0.0
1.28	0.0286715209631955	0.0	0.0
1.29	0.0277120875056557	0.0	0.0
1.3	0.0267498828624587	0.0	0.0
1.31	0.0257850032532669	0.0	0.0
1.32	0.0248175451652372	0.0	0.0
1.33	0.0238476053433723	0.0	0.0
1.34	0.0228752807808459	0.0	0.0
1.35	0.0219006687093041	0.0	0.0
1.36	0.0209238665891419	0.0	0.0
1.37	0.0199449720997572	0.0	0.0
1.38	0.0189640831297834	0.0	0.0
1.39	0.0179812977672999	0.0	0.0
1.4	0.016996714290024	0.0	0.0
1.41	0.0160104311554831	0.0	0.0
1.42	0.0150225469911685	0.0	0.0
1.43	0.0140331605846736	0.0	0.0
1.44	0.0130423708738145	0.0	0.0
1.45	0.0120502769367366	0.0	0.0
1.46	0.0110569779820069	0.0	0.0
1.47	0.0100625733386931	0.0	0.0
1.48	0.0090671624464309	0.0	0.0
1.49	0.00807084484548	0.0	0.0
1.5	0.0070737201667702	0.0	0.0
1.51	0.0060758881219385	0.0	0.0
1.52	0.0050774484933579	0.0	0.0
1.53	0.0040785011241591	0.0	0.0
1.54	0.0030791459082466	0.0	0.0
1.55	0.0020794827803092	0.0	0.0
1.56	0.0010796117058267	0.0	0.0
1.57	7.963267107332634e-05	0.0	0.0
1.58	-0.0009203543268808	0.0	0.0
1.59	-0.0019202492901692	0.0	0.0
1.6	-0.0029199522301288	0.0	0.0
1.61	-0.0039193631772987	0.0	0.0
1.62	-0.004918382191417	0.0	0.0
1.63	-0.0059169093714148	0.0	0.0
1.64	-0.0069148448654062	0.0	0.0
1.65	-0.0079120888806734	0.0	0.0
1.66	-0.0089085416936459	0.0	0.0
1.67	-0.0099041036598728	0.0	0.0
1.68	-0.0108986752239871	0.0	0.0
1.69	-0.0118921569296612	0.0	0.0
1.7	-0.0128844494295524	0.0	0.0
1.71	-0.0138754534952377	0.0	0.0
1.72	-0.0148650700271363	0.0	0.0
1.73	-0.0158532000644197	0.0	0.0
1.74	-0.0168397447949077	0.0	0.0
1.75	-0.0178246055649492	0.0	0.0
1.76	-0.018807683889288	0.0	0.0
1.77	-0.0197888814609109	0.0	0.0
1.78	-0.0207681001608783	0.0	0.0
1.79	-0.0217452420681364	0.0	0.0
1.8	-0.0227202094693087	0.0	0.0
1.81	-0.0236929048684674	0.0	0.0
1.82	-0.0246632309968834	0.0	0.0
1.83	-0.0256310908227522	0.0	0.0
1.84	-0.026596387560898	0.0	0.0
1.85	-0.0275590246824512	0.0	0.0
1.86	-0.028518905924502	0.0	0.0
1.87	-0.0294759352997261	0.0	0.0
1.88	-0.0304300171059833	0.0	0.0
1.89	-0.0313810559358882	0.0	0.0
1.9	-0.0323289566863503	0.0	0.0
1.91	-0.0332736245680845	0.0	0.0
1.92	-0.0342149651150898	0.0	0.0
1.93	-0.0351528841940959	0.0	0.0
1.94	-0.0360872880139767	0.0	0.0
1.95	-0.0370180831351286	0.0	0.0
1.96	-0.0379451764788154	0.0	0.0
1.97	-0.0388684753364752	0.0	0.0
1.98	-0.0397878873789916	0.0	0.0
1.99	-0.0407033206659265	0.0	0.0
2.0	-0.0416146836547142	0.0	0.0
2.01	-0.0425218852098152	0.0	0.0
2.02	-0.04342483461183	0.0	0.0
2.03	-0.0443234415665709	0.0	0.0
2.04	-0.0452176162140912	0.0	0.0
2.05	-0.0461072691376712	0.0	0.0
2.06	-0.0469923113727602	0.0	0.0
2.07	-0.0478726544158719	0.0	0.0
2.08	-0.0487482102334359	0.0	0.0
2.09	-0.0496188912705998	0.0	0.0
2.1	-0.0504846104599857	0.0	0.0
2.11	-0.0513452812303959	0.0	0.0
2.12	-0.0522008175154707	0.0	0.0
2.13	-0.0530511337622944	0.0	0.0
2.14	-0.0538961449399511	0.0	0.0
2.15	-0.0547357665480271	0.0	0.0
2.16	-0.0555699146250612	0.0	0.0
2.17	-0.056398505756941	0.0	0.0
2.18	-0.0572214570852436	0.0	0.0
2.19	-0.0580386863155222	0.0	0.0
2.2	-0.0588501117255345	0.0	0.0
2.21	-0.0596556521734159	0.0	0.0
2.22	-0.0604552271057929	0.0	0.0
2.23	-0.0612487565658385	0.0	0.0
2.24	-0.0620361612012679	0.0	0.0
2.25	-0.0628173622722739	0.0	0.0
2.26	-0.0635922816594002	0.0	0.0
2.27	-0.064360841871354	0.0	0.0
2.28	-0.0651229660527546	0.0	0.0
2.29	-0.0658785779918187	0.0	0.0
2.3000000000000003	-0.0666276021279824	0.0	0.0
2.31	-0.0673699635594561	0.0	0.0
2.32	-0.0681055880507152	0.0	0.0
2.33	-0.0688344020399238	0.0	0.0
2.34	-0.0695563326462902	0.0	0.0
2.35	-0.0702713076773554	0.0	0.0
2.36	-0.070979255636212	0.0	0.0
2.37	-0.0716801057286542	0.0	0.0
2.38	-0.0723737878702568	0.0	0.0
2.39	-0.0730602326933837	0.0	0.0
2.4	-0.0737393715541245	0.0	0.0
2.41	-0.0744111365391592	0.0	0.0
2.42	-0.0750754604725491	0.0	0.0
2.43	-0.0757322769224543	0.0	0.0
2.44	-0.0763815202077774	0.0	0.0
2.45	-0.0770231254047307	0.0	0.0
2.46	-0.0776570283533293	0.0	0.0
2.47	-0.0782831656638065	0.0	0.0
2.48	-0.0789014747229531	0.0	0.0
2.49	-0.0795118937003784	0.0	0.0
2.5	-0.0801143615546933	0.0	0.0
2.51	-0.0807088180396146	0.0	0.0
2.52	-0.081295203709989	0.0	0.0
2.53	-0.0818734599277382	0.0	0.0
2.54	-0.0824435288677222	0.0	0.0
2.5500000000000003	-0.0830053535235222	0.0	0.0
2.56	-0.0835588777131407	0.0	0.0
2.57	-0.0841040460846201	0.0	0.0
2.58	-0.0846408041215775	0.0	0.0
2.59	-0.0851690981486565	0.0	0.0
2.6	-0.0856888753368947	0.0	0.0
2.61	-0.0862000837090063	0.0	0.0
2.62	-0.0867026721445802	0.0	0.0
2.63	-0.0871965903851916	0.0	0.0
2.64	-0.0876817890394281	0.0	0.0
2.65	-0.0881582195878286	0.0	0.0
2.66	-0.0886258343877352	0.0	0.0
2.67	-0.0890845866780576	0.0	0.0
2.68	-0.0895344305839492	0.0	0.0
2.69	-0.0899753211213941	0.0	0.0
2.7	-0.0904072142017061	0.0	0.0
2.71	-0.090830066635937	0.0	0.0
2.72	-0.0912438361391958	0.0	0.0
2.73	-0.0916484813348769	0.0	0.0
2.74	-0.092043961758798	0.0	0.0
2.75	-0.0924302378632463	0.0	0.0
2.76	-0.0928072710209332	0.0	0.0
2.77	-0.0931750235288572	0.0	0.0
2.78	-0.0935334586120738	0.0	0.0
2.79	-0.0938825404273736	0.0	0.0
2.8000000000000003	-0.0942222340668658	0.0	0.0
2.81	-0.0945525055614696	0.0	0.0
2.82	-0.0948733218843107	0.0	0.0
2.83	-0.0951846509540242	0.0	0.0
2.84	-0.0954864616379626	0.0	0.0
2.85	-0.095778723755309	0.0	0.0
2.86	-0.0960614080800952	0.0	0.0
2.87	-0.0963344863441243	0.0	0.0
2.88	-0.0965979312397974	0.0	0.0
2.89	-0.0968517164228446	0.0	0.0
2.9	-0.097095816514959	0.0	0.0
2.91	-0.0973302071063348	0.0	0.0
2.92	-0.0975548647581082	0.0	0.0
2.93	-0.0977697670047013	0.0	0.0
2.94	-0.0979748923560684	0.0	0.0
2.95	-0.0981702202998454	0.0	0.0
2.96	-0.0983557313034006	0.0	0.0
2.97	-0.0985314068157883	0.0	0.0
2.98	-0.0986972292696037	0.0	0.0
2.99	-0.0988531820827396	0.0	0.0
3.0	-0.0989992496600445	0.0	0.0
3.01	-0.0991354173948825	0.0	0.0
3.02	-0.0992616716705937	0.0	0.0
3.03	-0.0993779998618555	0.0	0.0
3.04	-0.0994843903359459	0.0	0.0
3.0500000000000003	-0.0995808324539061	0.0	0.0
3.06	-0.0996673165716046	0.0	0.0
3.0700000000000003	-0.0997438340407018	0.0	0.0
3.08	-0.0998103772095145	0.0	0.0
3.09	-0.0998669394237813	0.0	0.0
3.1	-0.0999135150273279	0.0	0.0
3.11	-0.0999500993626327	0.0	0.0
3.12	-0.0999766887712928	0.0	0.0
3.13	-0.0999932805943893	0.0	0.0
3.14	-0.0999998731727539	0.0	0.0
3.15	-0.0999964658471342	0.0	0.0
3.16	-0.0999830589582598	0.0	0.0
3.17	-0.0999596538468085	0.0	0.0
3.18	-0.0999262528532721	0.0	0.0
3.19	-0.0998828593177218	0.0	0.0
3.2	-0.0998294775794753	0.0	0.0
3.21	-0.0997661129766617	0.0	0.0
3.22	-0.0996927718456887	0.0	0.0
3.23	-0.0996094615206081	0.0	0.0
3.24	-0.099516190332383	0.0	0.0
3.25	-0.0994129676080546	0.0	0.0
3.26	-0.0992998036698092	0.0	0.0
3.27	-0.0991767098339465	0.0	0.0
3.28	-0.0990436984097473	0.0	0.0
3.29	-0.0989007826982432	0.0	0.0
3.3000000000000003	-0.0987479769908865	0.0	0.0
3.31	-0.0985852965681203	0.0	0.0
3.3200000000000003	-0.0984127576978514	0.0	0.0
3.33	-0.0982303776338231	0.0	0.0
3.34	-0.0980381746138898	0.0	0.0
3.35	-0.0978361678581934	0.0	0.0
3.36	-0.097624377567241	0.0	0.0
3.37	-0.0974028249198852	0.0	0.0
3.38	-0.0971715320712062	0.0	0.0
3.39	-0.096930522150296	0.0	0.0
3.4	-0.0966798192579461	0.0	0.0
3.41	-0.0964194484642365	0.0	0.0
3.42	-0.0961494358060298	0.0	0.0
3.43	-0.0958698082843668	0.0	0.0
3.44	-0.0955805938617666	0.0	0.0
3.45	-0.0952818214594304	0.0	0.0
3.46	-0.0949735209543496	0.0	0.0
3.47	-0.0946557231763176	0.0	0.0
3.48	-0.0943284599048475	0.0	0.0
3.49	-0.0939917638659938	0.0	0.0
3.5	-0.0936456687290796	0.0	0.0
3.51	-0.0932902091033303	0.0	0.0
3.52	-0.0929254205344123	0.0	0.0
3.53	-0.0925513395008784	0.0	0.0
3.54	-0.0921680034105203	0.0	0.0
3.5500000000000003	-0.0917754505966275	0.0	0.0
3.56	-0.0913737203141544	0.0	0.0
3.5700000000000003	-0.0909628527357944	0.0	0.0
3.58	-0.0905428889479629	0.0	0.0
3.59	-0.0901138709466888	0.0	0.0
3.6	-0.0896758416334147	0.0	0.0
3.61	-0.0892288448107068	0.0	0.0
3.62	-0.088772925177875	0.0	0.0
3.63	-0.0883081283265026	0.0	0.0
3.64	-0.0878345007358874	0.0	0.0
3.65	-0.0873520897683938	0.0	0.0
3.66	-0.0868609436647164	0.0	0.0
3.67	-0.0863611115390566	0.0	0.0
3.68	-0.0858526433742101	0.0	0.0
3.69	-0.0853355900165699	0.0	0.0
3.7	-0.0848100031710408	0.0	0.0
3.71	-0.0842759353958693	0.0	0.0
3.72	-0.083733440097388	0.0	0.0
3.73	-0.0831825715246745	0.0	0.0
3.74	-0.0826233847641272	0.0	0.0
3.75	-0.082055935733956	0.0	0.0
3.76	-0.0814802811785912	0.0	0.0
3.77	-0.0808964786630085	0.0	0.0
3.78	-0.080304586566973	0.0	0.0
3.79	-0.0797046640792011	0.0	0.0
3.8	-0.0790967711914416	0.0	0.0
3.81	-0.0784809686924767	0.0	0.0
3.82	-0.0778573181620432	0.0	0.0
3.83	-0.0772258819646743	0.0	0.0
3.84	-0.0765867232434637	0.0	0.0
3.85	-0.0759399059137507	0.0	0.0
3.86	-0.0752854946567295	0.0	0.0
3.87	-0.0746235549129802	0.0	0.0
3.88	-0.0739541528759258	0.0	0.0
3.89	-0.073277355485212	0.0	0.0
3.9	-0.072593230420014	0.0	0.0
3.91	-0.0719018460922681	0.0	0.0
3.92	-0.071203271639831	0.0	0.0
3.93	-0.0704975769195657	0.0	0.0
3.94	-0.0697848325003563	0.0	0.0
3.95	-0.0690651096560507	0.0	0.0
3.96	-0.0683384803583336	0.0	0.0
3.97	-0.0676050172695291	0.0	0.0
3.98	-0.0668647937353351	0.0	0.0
3.99	-0.0661178837774879	0.0	0.0
4.0	-0.0653643620863611	0.0	0.0
4.01	-0.0646043040134958	0.0	0.0
4.0200000000000005	-0.0638377855640658	0.0	0.0
4.03	-0.0630648833892775	0.0	0.0
4.04	-0.0622856747787041	0.0	0.0
4.05	-0.0615002376525574	0.0	0.0
4.0600000000000005	-0.0607086505538954	0.0	0.0
4.07	-0.0599109926407685	0.0	0.0
4.08	-0.0591073436783031	0.0	0.0
4.09	-0.0582977840307259	0.0	0.0
4.1	-0.0574823946533269	0.0	0.0
4.11	-0.0566612570843643	0.0	0.0
4.12	-0.055834453436911	0.0	0.0
4.13	-0.0550020663906425	0.0	0.0
4.14	-0.0541641791835698	0.0	0.0
4.15	-0.0533208756037154	0.0	0.0
4.16	-0.0524722399807346	0.0	0.0
4.17	-0.0516183571774824	0.0	0.0
4.18	-0.0507593125815277	0.0	0.0
4.19	-0.049895192096614	0.0	0.0
4.2	-0.0490260821340699	0.0	0.0
4.21	-0.0481520696041673	0.0	0.0
4.22	-0.0472732419074309	0.0	0.0
4.23	-0.046389686925898	0.0	0.0
4.24	-0.0455014930143304	0.0	0.0
4.25	-0.0446087489913792	0.0	0.0
4.26	-0.0437115441307027	0.0	0.0
4.2700000000000005	-0.0428099681520393	0.0	0.0
4.28	-0.0419041112122355	0.0	0.0
4.29	-0.0409940638962305	0.0	0.0
4.3	-0.0400799172079975	0.0	0.0
4.3100000000000005	-0.0391617625614434	0.0	0.0
4.32	-0.038239691771268	0.0	0.0
4.33	-0.0373137970437817	0.0	0.0
4.34	-0.0363841709676858	0.0	0.0
4.3500000000000005	-0.0354509065048131	0.0	0.0
4.36	-0.0345140969808323	0.0	0.0
4.37	-0.033573836075915	0.0	0.0
4.38	-0.0326302178153683	0.0	0.0
4.39	-0.0316833365602318	0.0	0.0
4.4	-0.0307332869978419	0.0	0.0
4.41	-0.0297801641323633	0.0	0.0
4.42	-0.0288240632752881	0.0	0.0
4.43	-0.0278650800359054	0.0	0.0
4.44	-0.0269033103117399	0.0	0.0
4.45	-0.0259388502789626	0.0	0.0
4.46	-0.024971796382773	0.0	0.0
4.47	-0.0240022453277549	0.0	0.0
4.48	-0.0230302940682058	0.0	0.0
4.49	-0.0220560397984418	0.0	0.0
4.5	-0.0210795799430779	0.0	0.0
4.51	-0.020101012147286	0.0	0.0
4.5200000000000005	-0.01912043426703	0.0	0.0
4.53	-0.0181379443592811	0.0	0.0
4.54	-0.0171536406722111	0.0	0.0
4.55	-0.0161676216353686	0.0	0.0
4.5600000000000005	-0.0151799858498354	0.0	0.0
4.57	-0.0141908320783673	0.0	0.0
4.58	-0.013200259235517	0.0	0.0
4.59	-0.0122083663777433	0.0	0.0
4.6000000000000005	-0.0112152526935054	0.0	0.0
4.61	-0.0102210174933442	0.0	0.0
4.62	-0.0092257601999511	0.0	0.0
4.63	-0.0082295803382262	0.0	0.0
4.64	-0.0072325775253254	0.0	0.0
4.65	-0.0062348514606991	0.0	0.0
4.66	-0.0052365019161225	0.0	0.0
4.67	-0.0042376287257181	0.0	0.0
4.68	-0.0032383317759724	0.0	0.0
4.69	-0.0022387109957477	0.0	0.0
4.7	-0.001238866346289	0.0	0.0
4.71	-0.0002388978112281	0.0	0.0
4.72	0.0007610946134147	0.0	0.0
4.73	0.0017610109292307	0.0	0.0
4.74	0.0027607511454211	0.0	0.0
4.75	0.0037602152887976	0.0	0.0
4.76	0.0047593034137787	0.0	0.0
4.7700000000000005	0.0057579156123846	0.0	0.0
4.78	0.0067559520242275	0.0	0.0
4.79	0.0077533128464978	0.0	0.0
4.8	0.0087498983439446	0.0	0.0
4.8100000000000005	0.0097456088588486	0.0	0.0
4.82	0.010740344820988	0.0	0.0
4.83	0.0117340067575955	0.0	0.0
4.84	0.0127264953033056	0.0	0.0
4.8500000000000005	0.0137177112100908	0.0	0.0
4.86	0.0147075553571863	0.0	0.0
4.87	0.0156959287610023	0.0	0.0
4.88	0.0166827325850221	0.0	0.0
4.89	0.0176678681496857	0.0	0.0
4.9	0.0186512369422575	0.0	0.0
4.91	0.0196327406266777	0.0	0.0
4.92	0.0206122810533958	0.0	0.0
4.93	0.0215897602691854	0.0	0.0
4.94	0.0225650805269395	0.0	0.0
4.95	0.0235381442954451	0.0	0.0
4.96	0.0245088542691361	0.0	0.0
4.97	0.0254771133778242	0.0	0.0
4.98	0.0264428247964055	0.0	0.0
4.99	0.0274058919545427	0.0	0.0
5.0	0.0283662185463226	0.0	0.0
5.01	0.0293237085398863	0.0	0.0
5.0200000000000005	0.0302782661870324	0.0	0.0
5.03	0.0312297960327915	0.0	0.0
5.04	0.0321782029249721	0.0	0.0
5.05	0.0331233920236753	0.0	0.0
5.0600000000000005	0.034065268810779	0.0	0.0
5.07	0.0350037390993891	0.0	0.0
5.08	0.0359387090432589	0.0	0.0
5.09	0.0368700851461733	0.0	0.0
5.1000000000000005	0.0377977742712981	0.0	0.0
5.11	0.0387216836504937	0.0	0.0
5.12	0.0396417208935922	0.0	0.0
5.13	0.040557793997636	0.0	0.0
5.14	0.0414698113560781	0.0	0.0
5.15	0.0423776817679428	0.0	0.0
5.16	0.0432813144469452	0.0	0.0
5.17	0.0441806190305705	0.0	0.0
5.18	0.0450755055891098	0.0	0.0
5.19	0.0459658846346531	0.0	0.0
5.2	0.0468516671300377	0.0	0.0
5.21	0.0477327644977521	0.0	0.0
5.22	0.048609088628794	0.0	0.0
5.23	0.0494805518914805	0.0	0.0
5.24	0.0503470671402114	0.0	0.0
5.25	0.051208547724184	0.0	0.0
5.26	0.0520649074960579	0.0	0.0
5.2700000000000005	0.0529160608205695	0.0	0.0
5.28	0.0537619225830956	0.0	0.0
5.29	0.0546024081981648	0.0	0.0
5.3	0.055437433617916	0.0	0.0
5.3100000000000005	0.0562669153405033	0.0	0.0
5.32	0.0570907704184453	0.0	0.0
5.33	0.057908916466921	0.0	0.0
5.34	0.0587212716720073	0.0	0.0
5.3500000000000005	0.0595277547988606	0.0	0.0
5.36	0.0603282851998404	0.0	0.0
5.37	0.0611227828225735	0.0	0.0
5.38	0.0619111682179598	0.0	0.0
5.39	0.0626933625481169	0.0	0.0
5.4	0.0634692875942634	0.0	0.0
5.41	0.0642388657645414	0.0	0.0
5.42	0.0650020201017751	0.0	0.0
5.43	0.0657586742911669	0.0	0.0
5.44	0.0665087526679282	0.0	0.0
5.45	0.0672521802248466	0.0	0.0
5.46	0.0679888826197857	0.0	0.0
5.47	0.06871878618312	0.0	0.0
5.48	0.0694418179251016	0.0	0.0
5.49	0.0701579055431586	0.0	0.0
5.5	0.070866977429126	0.0	0.0
5.51	0.0715689626764061	0.0	0.0
5.5200000000000005	0.0722637910870592	0.0	0.0
5.53	0.0729513931788232	0.0	0.0
5.54	0.0736317001920619	0.0	0.0
5.55	0.0743046440966409	0.0	0.0
5.5600000000000005	0.0749701575987307	0.0	0.0
5.57	0.0756281741475355	0.0	0.0
5.58	0.0762786279419488	0.0	0.0
5.59	0.0769214539371332	0.0	0.0
5.6000000000000005	0.077556587851025	0.0	0.0
5.61	0.0781839661707618	0.0	0.0
5.62	0.0788035261590347	0.0	0.0
5.63	0.0794152058603611	0.0	0.0
5.64	0.0800189441072805	0.0	0.0
5.65	0.0806146805264715	0.0	0.0
5.66	0.0812023555447885	0.0	0.0
5.67	0.0817819103952194	0.0	0.0
5.68	0.0823532871227622	0.0	0.0
5.69	0.0829164285902202	0.0	0.0
5.7	0.0834712784839159	0.0	0.0
5.71	0.0840177813193225	0.0	0.0
5.72	0.0845558824466116	0.0	0.0
5.73	0.0850855280561192	0.0	0.0
5.74	0.0856066651837255	0.0	0.0
5.75	0.0861192417161521	0.0	0.0
5.76	0.0866232063961728	0.0	0.0
5.7700000000000005	0.0871185088277397	0.0	0.0
5.78	0.0876050994810223	0.0	0.0
5.79	0.0880829296973609	0.0	0.0
5.8	0.0885519516941319	0.0	0.0
5.8100000000000005	0.0890121185695265	0.0	0.0
5.82	0.0894633843072407	0.0	0.0
5.83	0.0899057037810767	0.0	0.0
5.84	0.0903390327594558	0.0	0.0
5.8500000000000005	0.0907633279098413	0.0	0.0
5.86	0.0911785468030716	0.0	0.0
5.87	0.0915846479176035	0.0	0.0
5.88	0.0919815906436639	0.0	0.0
5.89	0.092369335287311	0.0	0.0
5.9	0.0927478430744035	0.0	0.0
5.91	0.0931170761544783	0.0	0.0
5.92	0.0934769976045349	0.0	0.0
5.93	0.0938275714327282	0.0	0.0
5.94	0.0941687625819677	0.0	0.0
5.95	0.0945005369334227	0.0	0.0
5.96	0.0948228613099345	0.0	0.0
5.97	0.0951357034793342	0.0	0.0
5.98	0.0954390321576654	0.0	0.0
5.99	0.095732817012313	0.0	0.0
6.0	0.0960170286650366	0.0	0.0
6.01	0.0962916386949075	0.0	0.0
6.0200000000000005	0.0965566196411518	0.0	0.0
6.03	0.0968119450058954	0.0	0.0
6.04	0.0970575892568149	0.0	0.0
6.05	0.0972935278296897	0.0	0.0
6.0600000000000005	0.0975197371308592	0.0	0.0
6.07	0.0977361945395819	0.0	0.0
6.08	0.0979428784102971	0.0	0.0
6.09	0.09813976807479	0.0	0.0
6.1000000000000005	0.0983268438442584	0.0	0.0
6.11	0.0985040870112811	0.0	0.0
6.12	0.0986714798516892	0.0	0.0
6.13	0.098829005626338	0.0	0.0
6.140000000000001	0.0989766485827814	0.0	0.0
6.15	0.0991143939568469	0.0	0.0
6.16	0.0992422279741117	0.0	0.0
6.17	0.0993601378512806	0.0	0.0
6.18	0.0994681117974643	0.0	0.0
6.19	0.099566139015358	0.0	0.0
6.2	0.0996542097023217	0.0	0.0
6.21	0.0997323150513601	0.0	0.0
6.22	0.0998004472520033	0.0	0.0
6.23	0.0998585994910881	0.0	0.0
6.24	0.099906765953439	0.0	0.0
6.25	0.0999449418224499	0.0	0.0
6.26	0.0999731232805657	0.0	0.0
6.2700000000000005	0.0999913075096642	0.0	0.0
6.28	0.0999994926913375	0.0	0.0
6.29	0.0999976780070743	0.0	0.0
6.3	0.0999858636383415	0.0	0.0
6.3100000000000005	0.0999640507665661	0.0	0.0
6.32	0.0999322415730172	0.0	0.0
6.33	0.0998904392385876	0.0	0.0
6.34	0.0998386479434759	0.0	0.0
6.3500000000000005	0.0997768728667684	0.0	0.0
6.36	0.0997051201859213	0.0	0.0
6.37	0.099623397076143	0.0	0.0
6.38	0.0995317117096763	0.0	0.0
6.390000000000001	0.0994300732549815	0.0	0.0
6.4	0.0993184918758192	0.0	0.0
6.41	0.0991969787302345	0.0	0.0
6.42	0.0990655459694407	0.0	0.0
6.43	0.0989242067366043	0.0	0.0
6.44	0.0987729751655308	0.0	0.0
6.45	0.0986118663792512	0.0	0.0
6.46	0.09844089648851	0.0	0.0
6.47	0.0982600825901538	0.0	0.0
6.48	0.0980694427654217	0.0	0.0
6.49	0.0978689960781373	0.0	0.0
6.5	0.0976587625728023	0.0	0.0
6.51	0.0974387632725921	0.0	0.0
6.5200000000000005	0.0972090201772533	0.0	0.0
6.53	0.096969556260904	0.0	0.0
6.54	0.0967203954697363	0.0	0.0
6.55	0.0964615627196218	0.0	0.0
6.5600000000000005	0.0961930838936196	0.0	0.0
6.57	0.0959149858393887	0.0	0.0
6.58	0.0956272963665027	0.0	0.0
6.59	0.0953300442436693	0.0	0.0
6.6000000000000005	0.0950232591958529	0.0	0.0
6.61	0.0947069719013027	0.0	0.0
6.62	0.0943812139884846	0.0	0.0
6.63	0.0940460180329184	0.0	0.0
6.640000000000001	0.0937014175539203	0.0	0.0
6.65	0.0933474470112512	0.0	0.0
6.66	0.0929841418016701	0.0	0.0
6.67	0.0926115382553954	0.0	0.0
6.68	0.0922296736324712	0.0	0.0
6.69	0.0918385861190415	0.0	0.0
6.7	0.0914383148235319	0.0	0.0
6.71	0.0910288997727382	0.0	0.0
6.72	0.0906103819078245	0.0	0.0
6.73	0.0901828030802283	0.0	0.0
6.74	0.0897462060474762	0.0	0.0
6.75	0.0893006344689076	0.0	0.0
6.76	0.0888461329013091	0.0	0.0
6.7700000000000005	0.0883827467944586	0.0	0.0
6.78	0.0879105224865808	0.0	0.0
6.79	0.0874295071997128	0.0	0.0
6.8	0.0869397490349825	0.0	0.0
6.8100000000000005	0.0864412969677982	0.0	0.0
6.82	0.0859342008429514	0.0	0.0
6.83	0.0854185113696318	0.0	0.0
6.84	0.0848942801163572	0.0	0.0
6.8500000000000005	0.0843615595058159	0.0	0.0
6.86	0.0838204028096251	0.0	0.0
6.87	0.0832708641430034	0.0	0.0
6.88	0.0827129984593596	0.0	0.0
6.890000000000001	0.0821468615447971	0.0	0.0
6.9	0.0815725100125356	0.0	0.0
6.91	0.0809900012972498	0.0	0.0
6.92	0.0803993936493257	0.0	0.0
6.93	0.0798007461290359	0.0	0.0
6.94	0.0791941186006335	0.0	0.0
6.95	0.0785795717263661	0.0	0.0
6.96	0.0779571669604087	0.0	0.0
6.97	0.0773269665427194	0.0	0.0
6.98	0.0766890334928147	0.0	0.0
6.99	0.0760434316034681	0.0	0.0
7.0	0.0753902254343304	0.0	0.0
7.01	0.0747294803054743	0.0	0.0
7.0200000000000005	0.074061262290862	0.0	0.0
7.03	0.0733856382117381	0.0	0.0
7.04	0.0727026756299475	0.0	0.0
7.05	0.0720124428411794	0.0	0.0
7.0600000000000005	0.0713150088681372	0.0	0.0
7.07	0.0706104434536372	0.0	0.0
7.08	0.0698988170536337	0.0	0.0
7.09	0.0691802008301737	0.0	0.0
7.1000000000000005	0.0684546666442806	0.0	0.0
7.11	0.0677222870487684	0.0	0.0
7.12	0.0669831352809865	0.0	0.0
7.13	0.0662372852554955	0.0	0.0
7.140000000000001	0.0654848115566765	0.0	0.0
7.15	0.0647257894312723	0.0	0.0
7.16	0.063960294780863	0.0	0.0
7.17	0.0631884041542757	0.0	0.0
7.18	0.0624101947399298	0.0	0.0
7.19	0.0616257443581182	0.0	0.0
7.2	0.0608351314532254	0.0	0.0
7.21	0.0600384350858831	0.0	0.0
7.22	0.059235734925064	0.0	0.0
7.23	0.0584271112401154	0.0	0.0
7.24	0.0576126448927319	0.0	0.0
7.25	0.0567924173288694	0.0	0.0
7.26	0.055966510570601	0.0	0.0
7.27	0.055135007207914	0.0	0.0
7.28	0.054297990390452	0.0	0.0
7.29	0.0534555438191991	0.0	0.0
7.3	0.0526077517381105	0.0	0.0
7.31	0.0517546989256876	0.0	0.0
7.32	0.050896470686501	0.0	0.0
7.33	0.0500331528426593	0.0	0.0
7.34	0.0491648317252275	0.0	0.0
7.35	0.0482915941655937	0.0	0.0
7.36	0.0474135274867862	0.0	0.0
7.37	0.0465307194947412	0.0	0.0
7.38	0.0456432584695222	0.0	0.0
7.390000000000001	0.0447512331564921	0.0	0.0
7.4	0.043854732757439	0.0	0.0
7.41	0.0429538469216556	0.0	0.0
7.42	0.0420486657369749	0.0	0.0
7.43	0.0411392797207608	0.0	0.0
7.44	0.0402257798108572	0.0	0.0
7.45	0.039308257356494	0.0	0.0
7.46	0.038386804109152	0.0	0.0
7.47	0.0374615122133878	0.0	0.0
7.48	0.0365324741976201	0.0	0.0
7.49	0.0355997829648764	0.0	0.0
7.5	0.0346635317835025	0.0	0.0
7.51	0.0337238142778365	0.0	0.0
7.52	0.0327807244188457	0.0	0.0
7.53	0.0318343565147303	0.0	0.0
7.54	0.0308848052014919	0.0	0.0
7.55	0.0299321654334707	0.0	0.0
7.56	0.0289765324738494	0.0	0.0
7.57	0.0280180018851278	0.0	0.0
7.58	0.027056669519566	0.0	0.0
7.59	0.0260926315095993	0.0	0.0
7.6	0.0251259842582254	0.0	0.0
7.61	0.0241568244293641	0.0	0.0
7.62	0.0231852489381904	0.0	0.0
7.63	0.0222113549414438	0.0	0.0
7.640000000000001	0.0212352398277125	0.0	0.0
7.65	0.0202570012076944	0.0	0.0
7.66	0.0192767369044363	0.0	0.0
7.67	0.0182945449435517	0.0	0.0
7.68	0.0173105235434181	0.0	0.0
7.69	0.0163247711053555	0.0	0.0
7.7	0.0153373862037864	0.0	0.0
7.71	0.014348467576378	0.0	0.0
7.72	0.013358114114169	0.0	0.0
7.73	0.0123664248516802	0.0	0.0
7.74	0.0113734989570116	0.0	0.0
7.75	0.0103794357219252	0.0	0.0
7.76	0.0093843345519162	0.0	0.0
7.77	0.0083882949562721	0.0	0.0
7.78	0.0073914165381227	0.0	0.0
7.79	0.006393798984479	0.0	0.0
7.8	0.0053955420562649	0.0	0.0
7.81	0.0043967455783415	0.0	0.0
7.82	0.0033975094295242	0.0	0.0
7.83	0.0023979335325952	0.0	0.0
7.84	0.0013981178443112	0.0	0.0
7.85	0.0003981623454078	0.0	0.0
7.86	-0.0006018329693981	0.0	0.0
7.87	-0.0016017681014087	0.0	0.0
7.88	-0.002601543057944	0.0	0.0
7.890000000000001	-0.0036010578623416	0.0	0.0
7.9	-0.0046002125639536	0.0	0.0
7.91	-0.0055989072481428	0.0	0.0
7.92	-0.0065970420462729	0.0	0.0
7.930000000000001	-0.007594517145696	0.0	0.0
7.94	-0.0085912327997332	0.0	0.0
7.95	-0.0095870893376497	0.0	0.0
7.96	-0.0105819871746217	0.0	0.0
7.97	-0.0115758268216945	0.0	0.0
7.98	-0.0125685088957318	0.0	0.0
7.99	-0.013559934129353	0.0	0.0
8.0	-0.0145500033808613	0.0	0.0
8.01	-0.0155386176441564	0.0	0.0
8.02	-0.016525678058636	0.0	0.0
8.03	-0.017511085919081	0.0	0.0
8.040000000000001	-0.0184947426855268	0.0	0.0
8.05	-0.0194765499931161	0.0	0.0
8.06	-0.0204564096619365	0.0	0.0
8.07	-0.0214342237068377	0.0	0.0
8.08	-0.0224098943472299	0.0	0.0
8.09	-0.0233833240168623	0.0	0.0
8.1	-0.0243544153735791	0.0	0.0
8.11	-0.0253230713090537	0.0	0.0
8.120000000000001	-0.0262891949585002	0.0	0.0
8.13	-0.0272526897103582	0.0	0.0
8.14	-0.0282134592159556	0.0	0.0
8.15	-0.0291714073991426	0.0	0.0
8.16	-0.0301264384658991	0.0	0.0
8.17	-0.0310784569139143	0.0	0.0
8.18	-0.0320273675421368	0.0	0.0
8.19	-0.0329730754602944	0.0	0.0
8.2	-0.0339154860983834	0.0	0.0
8.21	-0.0348545052161256	0.0	0.0
8.22	-0.0357900389123913	0.0	0.0
8.23	-0.0367219936345908	0.0	0.0
8.24	-0.0376502761880283	0.0	0.0
8.25	-0.0385747937452221	0.0	0.0
8.26	-0.039495453855187	0.0	0.0
8.27	-0.0404121644526792	0.0	0.0
8.28	-0.0413248338674027	0.0	0.0
8.290000000000001	-0.0422333708331769	0.0	0.0
8.3	-0.043137684497062	0.0	0.0
8.31	-0.0440376844284454	0.0	0.0
8.32	-0.0449332806280838	0.0	0.0
8.33	-0.0458243835371038	0.0	0.0
8.34	-0.0467109040459568	0.0	0.0
8.35	-0.0475927535033309	0.0	0.0
8.36	-0.0484698437250152	0.0	0.0
8.370000000000001	-0.0493420870027185	0.0	0.0
8.38	-0.0502093961128396	0.0	0.0
8.39	-0.0510716843251905	0.0	0.0
8.4	-0.0519288654116685	0.0	0.0
8.41	-0.0527808536548792	0.0	0.0
8.42	-0.0536275638567084	0.0	0.0
8.43	-0.0544689113468413	0.0	0.0
8.44	-0.0553048119912302	0.0	0.0
8.45	-0.0561351822005071	0.0	0.0
8.46	-0.0569599389383433	0.0	0.0
8.47	-0.057778999729752	0.0	0.0
8.48	-0.0585922826693367	0.0	0.0
8.49	-0.0593997064294812	0.0	0.0
8.5	-0.0602011902684823	0.0	0.0
8.51	-0.0609966540386241	0.0	0.0
8.52	-0.0617860181941924	0.0	0.0
8.53	-0.0625692037994295	0.0	0.0
8.540000000000001	-0.0633461325364276	0.0	0.0
8.55	-0.0641167267129601	0.0	0.0
8.56	-0.0648809092702518	0.0	0.0
8.57	-0.0656386037906838	0.0	0.0
8.58	-0.0663897345054353	0.0	0.0
8.59	-0.0671342263020608	0.0	0.0
8.6	-0.0678720047320012	0.0	0.0
8.61	-0.0686029960180282	0.0	0.0
8.620000000000001	-0.0693271270616225	0.0	0.0
8.63	-0.0700443254502828	0.0	0.0
8.64	-0.0707545194647683	0.0	0.0
8.65	-0.0714576380862691	0.0	0.0
8.66	-0.0721536110035092	0.0	0.0
8.67	-0.0728423686197768	0.0	0.0
8.68	-0.0735238420598841	0.0	0.0
8.69	-0.0741979631770551	0.0	0.0
8.700000000000001	-0.0748646645597399	0.0	0.0
8.71	-0.0755238795383557	0.0	0.0
8.72	-0.076175542191954	0.0	0.0
8.73	-0.0768195873548125	0.0	0.0
8.74	-0.0774559506229516	0.0	0.0
8.75	-0.0780845683605749	0.0	0.0
8.76	-0.0787053777064323	0.0	0.0
8.77	-0.0793183165801067	0.0	0.0
8.78	-0.0799233236882215	0.0	0.0
8.790000000000001	-0.0805203385305701	0.0	0.0
8.8	-0.0811093014061656	0.0	0.0
8.81	-0.0816901534192113	0.0	0.0
8.82	-0.08226283648499	0.0	0.0
8.83	-0.0828272933356724	0.0	0.0
8.84	-0.0833834675260437	0.0	0.0
8.85	-0.0839313034391483	0.0	0.0
8.86	-0.0844707462918516	0.0	0.0
8.870000000000001	-0.0850017421403179	0.0	0.0
8.88	-0.0855242378854045	0.0	0.0
8.89	-0.0860381812779726	0.0	0.0
8.9	-0.0865435209241112	0.0	0.0
8.91	-0.0870402062902767	0.0	0.0
8.92	-0.0875281877083464	0.0	0.0
8.93	-0.0880074163805852	0.0	0.0
8.94	-0.0884778443845252	0.0	0.0
8.950000000000001	-0.0889394246777582	0.0	0.0
8.96	-0.0893921111026392	0.0	0.0
8.97	-0.0898358583909031	0.0	0.0
8.98	-0.0902706221681909	0.0	0.0
8.99	-0.0906963589584872	0.0	0.0
9.0	-0.0911130261884677	0.0	0.0
9.01	-0.0915205821917565	0.0	0.0
9.02	-0.0919189862130931	0.0	0.0
9.03	-0.0923081984124074	0.0	0.0
9.04	-0.0926881798688036	0.0	0.0
9.05	-0.0930588925844528	0.0	0.0
9.06	-0.0934202994883924	0.0	0.0
9.07	-0.0937723644402331	0.0	0.0
9.08	-0.0941150522337732	0.0	0.0
9.09	-0.0944483286005189	0.0	0.0
9.1	-0.0947721602131111	0.0	0.0
9.11	-0.0950865146886587	0.0	0.0
9.12	-0.0953913605919759	0.0	0.0
9.13	-0.0956866674387263	0.0	0.0
9.14	-0.0959724056984716	0.0	0.0
9.15	-0.0962485467976237	0.0	0.0
9.16	-0.0965150631223029	0.0	0.0
9.17	-0.0967719280210989	0.0	0.0
9.18	-0.0970191158077357	0.0	0.0
9.19	-0.0972566017636407	0.0	0.0
9.2	-0.0974843621404164	0.0	0.0
9.21	-0.0977023741622146	0.0	0.0
9.22	-0.097910616028015	0.0	0.0
9.23	-0.0981090669138045	0.0	0.0
9.24	-0.0982977069746599	0.0	0.0
9.25	-0.0984765173467323	0.0	0.0
9.26	-0.0986454801491336	0.0	0.0
9.27	-0.0988045784857242	0.0	0.0
9.28	-0.0989537964468031	0.0	0.0
9.29	-0.0990931191106986	0.0	0.0
9.3	-0.0992225325452603	0.0	0.0
9.31	-0.0993420238092527	0.0	0.0
9.32	-0.0994515809536489	0.0	0.0
9.33	-0.0995511930228257	0.0	0.0
9.34	-0.0996408500556593	0.0	0.0
9.35	-0.0997205430865212	0.0	0.0
9.36	-0.0997902641461745	0.0	0.0
9.37	-0.0998500062625715	0.0	0.0
9.38	-0.0998997634615503	0.0	0.0
9.39	-0.0999395307674325	0.0	0.0
9.4	-0.0999693042035206	0.0	0.0
9.41	-0.0999890807924958	0.0	0.0
9.42	-0.0999988585567158	0.0	0.0
9.43	-0.0999986365184121	0.0	0.0
9.44	-0.0999884146997886	0.0	0.0
9.45	-0.0999681941230185	0.0	0.0
9.46	-0.0999379768101426	0.0	0.0
9.47	-0.099897765782867	0.0	0.0
9.48	-0.0998475650622611	0.0	0.0
9.49	-0.0997873796683549	0.0	0.0
9.5	-0.0997172156196378	0.0	0.0
9.51	-0.0996370799324561	0.0	0.0
9.52	-0.0995469806203118	0.0	0.0
9.53	-0.0994469266930611	0.0	0.0
9.54	-0.0993369281560131	0.0	0.0
9.55	-0.0992169960089301	0.0	0.0
9.56	-0.0990871422449267	0.0	0.0
9.57	-0.0989473798492712	0.0	0.0
9.58	-0.0987977227980866	0.0	0.0
9.59	-0.0986381860569534	0.0	0.0
9.6	-0.0984687855794127	0.0	0.0
9.61	-0.0982895383053711	0.0	0.0
9.62	-0.0981004621594066	0.0	0.0
9.63	-0.0979015760489763	0.0	0.0
9.64	-0.0976928998625255	0.0	0.0
9.65	-0.0974744544674989	0.0	0.0
9.66	-0.097246261708254	0.0	0.0
9.67	-0.0970083444038766	0.0	0.0
9.68	-0.0967607263458988	0.0	0.0
9.69	-0.09650343229592	0.0	0.0
9.7	-0.0962364879831309	0.0	0.0
9.71	-0.0959599201017404	0.0	0.0
9.72	-0.095673756308306	0.0	0.0
9.73	-0.0953780252189686	0.0	0.0
9.74	-0.0950727564065908	0.0	0.0
9.75	-0.0947579803977993	0.0	0.0
9.76	-0.0944337286699328	0.0	0.0
9.77	-0.0941000336478937	0.0	0.0
9.78	-0.0937569287009064	0.0	0.0
9.79	-0.0934044481391794	0.0	0.0
9.8	-0.0930426272104753	0.0	0.0
9.81	-0.0926715020965854	0.0	0.0
9.82	-0.0922911099097119	0.0	0.0
9.83	-0.0919014886887564	0.0	0.0
9.84	-0.0915026773955163	0.0	0.0
9.85	-0.0910947159107887	0.0	0.0
9.86	-0.090677645030382	0.0	0.0
9.87	-0.0902515064610367	0.0	0.0
9.88	-0.0898163428162546	0.0	0.0
9.89	-0.0893721976120376	0.0	0.0
9.9	-0.0889191152625361	0.0	0.0
9.91	-0.0884571410756072	0.0	0.0
9.92	-0.0879863212482849	0.0	0.0
9.93	-0.0875067028621594	0.0	0.0
9.94	-0.0870183338786697	0.0	0.0
9.95	-0.0865212631343071	0.0	0.0
9.96	-0.0860155403357319	0.0	0.0
9.97	-0.0855012160548026	0.0	0.0
9.98	-0.0849783417235185	0.0	0.0
9.99	-0.0844469696288772	0.0	0.0
