t,ax,ay,az,vx,vy,vz
0.0,-1.8849555921538759,-0.9424777960769379,-0.0,3.6739403974420595e-17,3.6739403974420595e-17,0.0
5e-05,-1.8849554991350466,-0.9424777844495842,-0.0,-9.4247778057364e-05,-4.71238896099647e-05,-0.0
0.0001,-1.884955220078568,-0.9424777495675233,-0.0,-0.000188495546812882,-9.4247778057364e-05,-0.0
0.00015000000000000001,-1.8849547549844674,-0.9424776914307561,-0.0,-0.00028274329696463535,-0.00014137166417915937,-0.0
0.0002,-1.884954103852791,-0.942477610039284,-0.0,-0.00037699101921061077,-0.000188495546812882,-0.0
0.00025,-1.884953266683603,-0.942477505393109,-0.0,-0.00047123870424919755,-0.00023561942479553017,-0.0
0.00030000000000000003,-1.8849522434769859,-0.9424773774922337,-0.0,-0.0005654863427783888,-0.00028274329696463535,-0.0
0.00035,-1.8849510342330407,-0.9424772263366613,-0.0,-0.0006597339254963156,-0.000329867162157196,-0.0
0.0004,-1.884949638951887,-0.9424770519263955,-0.0,-0.0007539814431011143,-0.00037699101921061077,-0.0
0.00045000000000000004,-1.8849480576336621,-0.9424768542614407,-0.0,-0.0008482288862909279,-0.00042411486696227824,-0.0
0.0005,-1.8849462902785223,-0.9424766333418015,-0.0,-0.0009424762457637735,-0.00047123870424919755,-0.0
0.00055,-1.8849443368866419,-0.9424763891674837,-0.0,-0.0010367235122180761,-0.0005183625299089012,-0.0
0.0006000000000000001,-1.884942197458214,-0.9424761217384929,-0.0,-0.0011309706763518701,-0.0005654863427783888,-0.0
0.0006500000000000001,-1.8849398719934496,-0.9424758310548362,-0.0,-0.0012252177288633336,-0.0006126101416950603,-0.0
0.0007,-1.884937360492578,-0.9424755171165203,-0.0,-0.001319464660450655,-0.0006597339254963156,-0.0
0.00075,-1.8849346629558472,-0.9424751799235535,-0.0,-0.0014137114618120352,-0.0007068576930191555,-0.0
0.0008,-1.8849317793835236,-0.9424748194759435,-0.0,-0.001507958123645688,-0.0007539814431011143,-0.0
0.0008500000000000001,-1.8849287097758918,-0.9424744357736995,-0.0,-0.0016022046366497074,-0.0008011051745791934,-0.0
0.0009000000000000001,-1.8849254541332543,-0.9424740288168311,-0.0,-0.001696450991522602,-0.0008482288862909279,-0.0
0.00095,-1.884922012455933,-0.9424735986053481,-0.0,-0.0017906971789624965,-0.0008953525770733204,-0.0
0.001,-1.8849183847442672,-0.9424731451392612,-0.0,-0.0018849431896676644,-0.0009424762457637735,-0.0
0.0010500000000000002,-1.8849145709986153,-0.9424726684185816,-0.0,-0.001979189014336398,-0.0009895998911996907,-0.0
0.0011,-1.884910571219353,-0.9424721684433209,-0.0,-0.0020734346436670076,-0.0010367235122180761,-0.0
0.00115,-1.884906385406876,-0.9424716452134919,-0.0,-0.0021676800683576884,-0.0010838471076564675,-0.0
0.0012000000000000001,-1.8849020135615968,-0.942471098729107,-0.0,-0.0022619252791070566,-0.0011309706763518701,-0.0
0.00125,-1.8848974556839468,-0.9424705289901799,-0.0,-0.0023561702666133498,-0.0011780942171418232,-0.0
0.0013000000000000002,-1.8848927117743766,-0.9424699359967248,-0.0,-0.002450415021574961,-0.0012252177288633336,-0.0
0.00135,-1.8848877818333536,-0.942469319748756,-0.0,-0.002544659534690305,-0.0012723412103538081,-0.0
0.0014,-1.8848826658613647,-0.942468680246289,-0.0,-0.002638903796657822,-0.001319464660450655,-0.0
0.0014500000000000001,-1.8848773638589147,-0.9424680174893394,-0.0,-0.0027331477981758423,-0.001366588077990883,-0.0
0.0015,-1.884871875826527,-0.9424673314779236,-0.0,-0.0028273915299431226,-0.0014137114618120352,-0.0
0.0015500000000000002,-1.8848662017647433,-0.9424666222120587,-0.0,-0.0029216349826580463,-0.0014608348107511219,-0.0
0.0016,-1.8848603416741234,-0.9424658896917618,-0.0,-0.0030158781470191577,-0.001507958123645688,-0.0
0.00165,-1.8848542955552459,-0.9424651339170513,-0.0,-0.003110121013725029,-0.0015550813993327455,-0.0
0.0017000000000000001,-1.8848480634087075,-0.9424643548879459,-0.0,-0.003204363573474263,-0.0016022046366497074,-0.0
0.00175,-1.884841645235123,-0.9424635526044645,-0.0,-0.003298605816965491,-0.001649327834433988,-0.0
0.0018000000000000002,-1.8848350410351262,-0.9424627270666271,-0.0,-0.0033928477348972434,-0.001696450991522602,-0.0
0.00185,-1.8848282508093688,-0.9424618782744542,-0.0,-0.0034870893179684823,-0.001743574106753099,-0.0
0.0019,-1.8848212745585209,-0.9424610062279665,-0.0,-0.0035813305568778036,-0.0017906971789624965,-0.0
0.0019500000000000001,-1.884814112283271,-0.9424601109271856,-0.0,-0.0036755714423239694,-0.0018378202069882117,-0.0
0.002,-1.884806763984326,-0.9424591923721336,-0.0,-0.003769811965005777,-0.0018849431896676644,-0.0
0.00205,-1.8847992296624114,-0.9424582505628332,-0.0,-0.0038640521156220607,-0.0019320661258378751,-0.0
0.0021000000000000003,-1.8847915093182706,-0.9424572854993076,-0.0,-0.003958291884871556,-0.001979189014336398,-0.0
0.00215,-1.8847836029526654,-0.9424562971815805,-0.0,-0.004052531263453438,-0.0020263118540002566,-0.0
0.0022,-1.8847755105663764,-0.9424552856096765,-0.0,-0.00414677024206652,-0.0020734346436670076,-0.0
0.0022500000000000003,-1.884767232160202,-0.9424542507836206,-0.0,-0.004241008811409786,-0.002120557382173676,-0.0
0.0023,-1.8847587677349595,-0.942453192703438,-0.0,-0.004335246962182264,-0.0021676800683576884,-0.0
0.00235,-1.8847501172914845,-0.9424521113691551,-0.0,-0.00442948468508302,-0.002214802701056472,-0.0
0.0024000000000000002,-1.8847412808306303,-0.9424510067807984,-0.0,-0.004523721970811164,-0.0022619252791070566,-0.0
0.00245,-1.8847322583532693,-0.9424498789383953,-0.0,-0.004617958810065716,-0.0023090478013470055,-0.0
0.0025,-1.8847230498602918,-0.9424487278419734,-0.0,-0.004712195193546139,-0.0023561702666133498,-0.0
0.00255,-1.884713655352607,-0.9424475534915615,-0.0,-0.004806431111951542,-0.002403292673743657,-0.0
0.0026000000000000003,-1.8847040748311414,-0.9424463558871883,-0.0,-0.004900666555981211,-0.002450415021574961,-0.0
0.00265,-1.8846943082968415,-0.9424451350288834,-0.0,-0.004994901516334484,-0.0024975373089446977,-0.0
0.0027,-1.8846843557506705,-0.9424438909166768,-0.0,-0.0050891359837107394,-0.002544659534690305,-0.0
0.0027500000000000003,-1.8846742171936108,-0.9424426235505994,-0.0,-0.005183369948809277,-0.0025917816976488216,-0.0
0.0028,-1.8846638926266635,-0.9424413329306823,-0.0,-0.0052776034023298436,-0.002638903796657822,-0.0
0.00285,-1.8846533820508469,-0.9424400190569575,-0.0,-0.005371836334971837,-0.002686025830554347,-0.0
0.0029000000000000002,-1.884642685467199,-0.9424386819294573,-0.0,-0.00546606873743484,-0.0027331477981758423,-0.0
0.00295,-1.8846318028767748,-0.9424373215482148,-0.0,-0.0055603006004184856,-0.0027802696983597517,-0.0
0.003,-1.884620734280649,-0.9424359379132635,-0.0,-0.005654531914622464,-0.0028273915299431226,-0.0
0.00305,-1.8846094796799138,-0.9424345310246376,-0.0,-0.005748762670746382,-0.0028745132917635374,-0.0
0.0031000000000000003,-1.88459803907568,-0.9424331008823716,-0.0,-0.005842992859490304,-0.0029216349826580463,-0.0
0.00315,-1.8845864124690768,-0.9424316474865011,-0.0,-0.005937222471553952,-0.002968756601464235,-0.0
0.0032,-1.8845745998612513,-0.9424301708370617,-0.0,-0.006031451497637234,-0.0030158781470191577,-0.0
0.0032500000000000003,-1.8845626012533698,-0.94242867093409,-0.0,-0.0061256799284401175,-0.0030629996181602698,-0.0
0.0033,-1.8845504166466165,-0.9424271477776229,-0.0,-0.006219907754662631,-0.003110121013725029,-0.0
0.00335,-1.8845380460421939,-0.9424256013676983,-0.0,-0.00631413496700486,-0.003157242332550495,-0.0
0.0034000000000000002,-1.8845254894413228,-0.9424240317043537,-0.0,-0.006408361556166818,-0.003204363573474263,-0.0
0.0034500000000000004,-1.8845127468452425,-0.9424224387876284,-0.0,-0.006502587512848981,-0.003251484735333395,-0.0
0.0035,-1.8844998182552108,-0.9424208226175615,-0.0,-0.006596812827751485,-0.003298605816965491,-0.0
0.00355,-1.8844867036725037,-0.9424191831941929,-0.0,-0.006691037491574665,-0.003345726817207617,-0.0
0.0036000000000000003,-1.8844734030984156,-0.9424175205175631,-0.0,-0.006785261495018921,-0.0033928477348972434,-0.0
0.00365,-1.8844599165342588,-0.9424158345877132,-0.0,-0.0068794848287847135,-0.0034399685688718405,-0.0
0.0037,-1.884446243981365,-0.9424141254046844,-0.0,-0.0069737074835724425,-0.0034870893179684823,-0.0
0.0037500000000000003,-1.8844323854410832,-0.9424123929685193,-0.0,-0.007067929450082969,-0.0035342099810247774,-0.0
0.0038,-1.8844183409147812,-0.9424106372792604,-0.0,-0.007162150719016825,-0.0035813305568778036,-0.0
0.00385,-1.8844041104038451,-0.9424088583369512,-0.0,-0.007256371281074744,-0.0036284510443650403,-0.0
0.0039000000000000003,-1.8843896939096796,-0.9424070561416354,-0.0,-0.007350591126957531,-0.0036755714423239694,-0.0
0.00395,-1.8843750914337076,-0.9424052306933577,-0.0,-0.007444810247366058,-0.003722691749591675,-0.0
0.004,-1.88436030297737,-0.942403381992163,-0.0,-0.007539028633001271,-0.003769811965005777,-0.0
0.00405,-1.8843453285421268,-0.9424015100380969,-0.0,-0.007633246274564054,-0.0038169320874033644,-0.0
0.0041,-1.8843301681294553,-0.9423996148312057,-0.0,-0.007727463162755768,-0.0038640521156220607,-0.0
0.00415,-1.8843148217408523,-0.9423976963715359,-0.0,-0.007821679288277443,-0.003911172048498959,-0.0
0.004200000000000001,-1.884299289377832,-0.9423957546591353,-0.0,-0.00791589464183032,-0.003958291884871556,-0.0
0.00425,-1.8842835710419281,-0.9423937896940513,-0.0,-0.00801010921411572,-0.004005411623577349,-0.0
0.0043,-1.8842676667346911,-0.9423918014763327,-0.0,-0.008104322995835033,-0.004052531263453438,-0.0
0.004350000000000001,-1.8842515764576915,-0.9423897900060284,-0.0,-0.008198535977689601,-0.00409965080333746,-0.0
0.0044,-1.8842353002125165,-0.9423877552831882,-0.0,-0.008292748150381241,-0.00414677024206652,-0.0
0.00445,-1.8842188380007732,-0.9423856973078621,-0.0,-0.008386959504611451,-0.0041938895784782585,-0.0
0.0045000000000000005,-1.8842021898240857,-0.942383616080101,-0.0,-0.008481170031081944,-0.004241008811409786,-0.0
0.00455,-1.884185355684098,-0.9423815115999563,-0.0,-0.008575379720494512,-0.004288127939698616,-0.0
0.0046,-1.8841683355824705,-0.9423793838674798,-0.0,-0.008669588563551035,-0.004335246962182264,-0.0
0.0046500000000000005,-1.8841511295208837,-0.9423772328827241,-0.0,-0.008763796550953336,-0.004382365877697847,-0.0
0.0047,-1.8841337375010356,-0.9423750586457422,-0.0,-0.008858003673403727,-0.00442948468508302,-0.0
0.00475,-1.8841161595246432,-0.9423728611565878,-0.0,-0.008952209921604205,-0.004476603383174906,-0.0
0.0048000000000000004,-1.8840983955934405,-0.9423706404153152,-0.0,-0.009046415286256985,-0.004523721970811164,-0.0
0.00485,-1.8840804457091813,-0.942368396421979,-0.0,-0.009140619758064373,-0.004570840446828924,-0.0
0.0049,-1.884062309873637,-0.9423661291766346,-0.0,-0.009234823327728757,-0.004617958810065716,-0.0
0.00495,-1.8840439880885975,-0.9423638386793382,-0.0,-0.00932902598595262,-0.004665077059359075,-0.0
0.005,-1.8840254803558714,-0.9423615249301459,-0.0,-0.009423227723438397,-0.004712195193546139,-0.0
0.005050000000000001,-1.8840067866772847,-0.9423591879291152,-0.0,-0.009517428530889016,-0.00475931321146458,-0.0
0.0051,-1.883987907054683,-0.9423568276763035,-0.0,-0.0096116283990071,-0.004806431111951542,-0.0
0.00515,-1.8839688414899294,-0.9423544441717691,-0.0,-0.00970582731849549,-0.00485354889384457,-0.0
0.005200000000000001,-1.883949589984906,-0.9423520374155707,-0.0,-0.009800025280057129,-0.004900666555981211,-0.0
0.00525,-1.883930152541512,-0.942349607407768,-0.0,-0.009894222274395051,-0.004947784097198621,-0.0
0.0053,-1.8839105291616665,-0.9423471541484207,-0.0,-0.009988418292212248,-0.004994901516334484,-0.0
0.005350000000000001,-1.8838907198473058,-0.9423446776375894,-0.0,-0.010082613324212217,-0.005042018812225958,-0.0
0.0054,-1.8838707246003856,-0.9423421778753353,-0.0,-0.010176807361098146,-0.0050891359837107394,-0.0
0.00545,-1.883850543422879,-0.9423396548617199,-0.0,-0.010271000393573454,-0.00513625302962599,-0.0
0.0055000000000000005,-1.8838301763167773,-0.9423371085968054,-0.0,-0.010365192412341665,-0.005183369948809277,-0.0
0.00555,-1.8838096232840913,-0.9423345390806549,-0.0,-0.010459383408106397,-0.005230486740098171,-0.0
0.0056,-1.8837888843268495,-0.9423319463133317,-0.0,-0.010553573371571373,-0.0052776034023298436,-0.0
0.0056500000000000005,-1.8837679594470988,-0.9423293302948997,-0.0,-0.010647762293440282,-0.005324719934342006,-0.0
0.0057,-1.8837468486469038,-0.9423266910254234,-0.0,-0.010741950164417317,-0.005371836334971837,-0.0
0.00575,-1.8837255519283487,-0.9423240285049681,-0.0,-0.010836136975206375,-0.005418952603057053,-0.0
0.0058000000000000005,-1.883704069293535,-0.9423213427335995,-0.0,-0.01093032271651159,-0.00546606873743484,-0.0
0.00585,-1.8836824007445834,-0.9423186337113836,-0.0,-0.0110245073790372,-0.005513184736942786,-0.0
0.0059,-1.8836605462836318,-0.9423159014383874,-0.0,-0.011118690953487555,-0.0055603006004184856,-0.0
0.00595,-1.8836385059128378,-0.9423131459146784,-0.0,-0.011212873430566974,-0.005607416326699134,-0.0
0.006,-1.883616279634376,-0.9423103671403245,-0.0,-0.011307054800980288,-0.005654531914622464,-0.0
0.006050000000000001,-1.883593867450441,-0.9423075651153943,-0.0,-0.011401235055432028,-0.005701647363025678,-0.0
0.0061,-1.8835712693632443,-0.9423047398399569,-0.0,-0.011495414184626985,-0.005748762670746382,-0.0
0.00615,-1.8835484853750162,-0.942301891314082,-0.0,-0.011589592179270044,-0.005795877836622187,-0.0
0.006200000000000001,-1.883525515488005,-0.94229901953784,-0.0,-0.011683769030066214,-0.005842992859490304,-0.0
0.00625,-1.8835023597044784,-0.9422961245113015,-0.0,-0.011777944727720611,-0.005890107738188487,-0.0
0.0063,-1.8834790180267218,-0.9422932062345384,-0.0,-0.011872119262938333,-0.005937222471553952,-0.0
0.006350000000000001,-1.8834554904570386,-0.9422902647076221,-0.0,-0.011966292626424993,-0.005984337058424459,-0.0
0.0064,-1.8834317769977507,-0.9422872999306257,-0.0,-0.01206046480888592,-0.006031451497637234,-0.0
0.00645,-1.8834078776511989,-0.9422843119036219,-0.0,-0.012154635801026688,-0.006078565788029909,-0.0
0.006500000000000001,-1.8833837924197419,-0.9422813006266849,-0.0,-0.012248805593552998,-0.0061256799284401175,-0.0
0.00655,-1.8833595213057566,-0.9422782660998887,-0.0,-0.012342974177170663,-0.006172793917705101,-0.0
0.0066,-1.8833350643116387,-0.9422752083233082,-0.0,-0.01243714154258548,-0.006219907754662631,-0.0
0.0066500000000000005,-1.883310421439802,-0.9422721272970189,-0.0,-0.012531307680503773,-0.006267021438149957,-0.0
0.0067,-1.8832855926926786,-0.9422690230210969,-0.0,-0.012625472581631582,-0.00631413496700486,-0.0
0.00675,-1.8832605780727187,-0.9422658954956187,-0.0,-0.012719636236675201,-0.006361248340064595,-0.0
0.0068000000000000005,-1.8832353775823918,-0.9422627447206614,-0.0,-0.012813798636341054,-0.006408361556166818,-0.0
0.00685,-1.8832099912241846,-0.9422595706963027,-0.0,-0.012907959771335685,-0.006455474614149192,-0.0
0.006900000000000001,-1.8831844190006028,-0.9422563734226213,-0.0,-0.013002119632365625,-0.006502587512848981,-0.0
0.0069500000000000004,-1.8831586609141702,-0.9422531528996957,-0.0,-0.013096278210137938,-0.006549700251103987,-0.0
0.007,-1.883132716967429,-0.9422499091276054,-0.0,-0.013190435495359412,-0.006596812827751485,-0.0
0.007050000000000001,-1.8831065871629398,-0.9422466421064307,-0.0,-0.013284591478737095,-0.006643925241629284,-0.0
0.0071,-1.8830802715032817,-0.9422433518362519,-0.0,-0.013378746150978161,-0.006691037491574665,-0.0
0.00715,-1.8830537699910515,-0.9422400383171504,-0.0,-0.01347289950278992,-0.006738149576425314,-0.0
0.007200000000000001,-1.8830270826288653,-0.9422367015492078,-0.0,-0.01356705152487981,-0.006785261495018921,-0.0
0.00725,-1.8830002094193568,-0.9422333415325066,-0.0,-0.01366120220795526,-0.006832373246192776,-0.0
0.0073,-1.882973150365178,-0.9422299582671294,-0.0,-0.013755351542724241,-0.0068794848287847135,-0.0
0.007350000000000001,-1.882945905469,-0.9422265517531601,-0.0,-0.013849499519894453,-0.006926596241632034,-0.0
0.0074,-1.8829184747335117,-0.9422231219906825,-0.0,-0.013943646130173862,-0.0069737074835724425,-0.0
0.00745,-1.88289085816142,-0.9422196689797812,-0.0,-0.01403779136427057,-0.007020818553443649,-0.0
0.007500000000000001,-1.8828630557554513,-0.9422161927205416,-0.0,-0.014131935212892813,-0.007067929450082969,-0.0
0.00755,-1.8828350675183487,-0.9422126932130492,-0.0,-0.014226077666748837,-0.007115040172328254,-0.0
0.0076,-1.882806893452875,-0.9422091704573906,-0.0,-0.014320218716547418,-0.007162150719016825,-0.0
0.0076500000000000005,-1.882778533561811,-0.9422056244536525,-0.0,-0.014414358352997071,-0.0072092610889865445,-0.0
0.0077,-1.8827499878479552,-0.9422020552019226,-0.0,-0.014508496566806594,-0.007256371281074744,-0.0
0.00775,-1.8827212563141253,-0.9421984627022888,-0.0,-0.014602633348684911,-0.00730348129411916,-0.0
0.0078000000000000005,-1.8826923389631571,-0.9421948469548398,-0.0,-0.014696768689341095,-0.007350591126957531,-0.0
0.007850000000000001,-1.8826632357979045,-0.9421912079596649,-0.0,-0.014790902579484363,-0.007397700778427203,-0.0
0.0079,-1.88263394682124,-0.9421875457168538,-0.0,-0.014885035009823938,-0.007444810247366058,-0.0
0.00795,-1.8826044720360537,-0.9421838602264969,-0.0,-0.014979165971069585,-0.007491919532611449,-0.0
0.008,-1.8825748114452554,-0.942180151488685,-0.0,-0.015073295453930824,-0.007539028633001271,-0.0
0.00805,-1.8825449650517723,-0.9421764195035098,-0.0,-0.015167423449117442,-0.007586137547372883,-0.0
0.0081,-1.8825149328585498,-0.9421726642710634,-0.0,-0.015261549947339382,-0.007633246274564054,-0.0
0.008150000000000001,-1.8824847148685524,-0.9421688857914382,-0.0,-0.015355674939306726,-0.007680354813412557,-0.0
0.0082,-1.882454311084762,-0.9421650840647277,-0.0,-0.01544979841572958,-0.007727463162755768,-0.0
0.00825,-1.8824237215101798,-0.9421612590910255,-0.0,-0.015543920367318597,-0.0077745713214316,-0.0
0.0083,-1.8823929461478244,-0.9421574108704261,-0.0,-0.015638040784784178,-0.007821679288277443,-0.0
0.00835,-1.8823619850007336,-0.9421535394030246,-0.0,-0.01573215965883701,-0.007868787062131084,-0.0
0.008400000000000001,-1.882330838071963,-0.942149644688916,-0.0,-0.01582627698018793,-0.00791589464183032,-0.0
0.008450000000000001,-1.8822995053645866,-0.9421457267281971,-0.0,-0.015920392739547935,-0.007963002026212553,-0.0
0.0085,-1.8822679868816974,-0.9421417855209641,-0.0,-0.016014506927628038,-0.00801010921411572,-0.0
0.00855,-1.882236282626405,-0.9421378210673144,-0.0,-0.01610861953513981,-0.00805721620437723,-0.0
0.0086,-1.8822043926018395,-0.9421338333673456,-0.0,-0.016202730552794566,-0.008104322995835033,-0.0
0.00865,-1.8821723168111477,-0.9421298224211565,-0.0,-0.016296839971303934,-0.008151429587326548,-0.0
0.008700000000000001,-1.8821400552574958,-0.9421257882288457,-0.0,-0.016390947781379672,-0.008198535977689601,-0.0
0.00875,-1.8821076079440677,-0.9421217307905129,-0.0,-0.016485053973733725,-0.00824564216576202,-0.0
0.0088,-1.882074974874066,-0.9421176501062583,-0.0,-0.016579158539078178,-0.008292748150381241,-0.0
0.00885,-1.882042156050711,-0.9421135461761824,-0.0,-0.01667326146812515,-0.008339853930385235,-0.0
0.0089,-1.8820091514772421,-0.9421094190003866,-0.0,-0.016767362751587325,-0.008386959504611451,-0.0
0.00895,-1.881975961156917,-0.9421052685789726,-0.0,-0.016861462380177137,-0.00843406487189787,-0.0
0.009000000000000001,-1.8819425850930105,-0.9421010949120429,-0.0,-0.01695556034460733,-0.008481170031081944,-0.0
0.00905,-1.8819090232888178,-0.9420968979997005,-0.0,-0.01704965663559081,-0.008528274981001538,-0.0
0.0091,-1.881875275747651,-0.942092677842049,-0.0,-0.017143751243840637,-0.008575379720494512,-0.0
0.00915,-1.8818413424728402,-0.9420884344391922,-0.0,-0.01723784416006992,-0.008622484248398343,-0.0
0.0092,-1.8818072234677352,-0.9420841677912353,-0.0,-0.017331935374992325,-0.008669588563551035,-0.0
0.009250000000000001,-1.881772918735703,-0.9420798778982832,-0.0,-0.017426024879321288,-0.00871669266479007,-0.0
0.009300000000000001,-1.88173842828013,-0.9420755647604419,-0.0,-0.017520112663770543,-0.008763796550953336,-0.0
0.00935,-1.8817037521044193,-0.9420712283778178,-0.0,-0.017614198719054005,-0.008810900220878722,-0.0
0.0094,-1.881668890211994,-0.9420668687505178,-0.0,-0.01770828303588575,-0.008858003673403727,-0.0
0.00945,-1.8816338426062944,-0.9420624858786497,-0.0,-0.017802365604980025,-0.008905106907366385,-0.0
0.0095,-1.8815986092907802,-0.9420580797623216,-0.0,-0.017896446417051123,-0.008952209921604205,-0.0
0.009550000000000001,-1.8815631902689283,-0.9420536504016419,-0.0,-0.017990525462813906,-0.008999312714955231,-0.0
0.009600000000000001,-1.8815275855442344,-0.9420491977967203,-0.0,-0.01808460273298301,-0.009046415286256985,-0.0
0.00965,-1.8814917951202124,-0.9420447219476663,-0.0,-0.018178678218273382,-0.00909351763434739,-0.0
0.0097,-1.8814558190003952,-0.9420402228545907,-0.0,-0.018272751909400142,-0.009140619758064373,-0.0
0.00975,-1.8814196571883328,-0.9420357005176041,-0.0,-0.01836682379707859,-0.00918772165624547,-0.0
0.0098,-1.8813833096875952,-0.9420311549368185,-0.0,-0.018460893872024074,-0.009234823327728757,-0.0
0.009850000000000001,-1.8813467765017688,-0.9420265861123457,-0.0,-0.01855496212495251,-0.00928192477135178,-0.0
0.0099,-1.88131005763446,-0.9420219940442988,-0.0,-0.018649028546579603,-0.00932902598595262,-0.0
0.00995,-1.881273153089292,-0.9420173787327907,-0.0,-0.018743093127621367,-0.009376126970368838,-0.0
0.01,-1.881236062869908,-0.9420127401779357,-0.0,-0.018837155858794002,-0.009423227723438397,-0.0
0.01005,-1.8811987869799682,-0.9420080783798478,-0.0,-0.01893121673081389,-0.009470328243999267,-0.0
0.010100000000000001,-1.8811613254231518,-0.9420033933386424,-0.0,-0.019025275734397457,-0.009517428530889016,-0.0
0.010150000000000001,-1.8811236782031557,-0.9419986850544348,-0.0,-0.019119332860261726,-0.009564528582945767,-0.0
0.0102,-1.8810858453236958,-0.9419939535273415,-0.0,-0.01921338809912349,-0.0096116283990071,-0.0
0.01025,-1.8810478267885062,-0.941989198757479,-0.0,-0.019307441441699876,-0.009658727977911143,-0.0
0.0103,-1.881009622601339,-0.9419844207449647,-0.0,-0.019401492878708185,-0.00970582731849549,-0.0
0.01035,-1.8809712327659647,-0.9419796194899166,-0.0,-0.019495542400865915,-0.00975292641959815,-0.0
0.010400000000000001,-1.8809326572861724,-0.941974794992453,-0.0,-0.01958958999889075,-0.009800025280057129,-0.0
0.010450000000000001,-1.8808938961657695,-0.9419699472526928,-0.0,-0.01968363566350043,-0.009847123898710047,-0.0
0.0105,-1.8808549494085813,-0.941965076270756,-0.0,-0.019777679385413287,-0.009894222274395051,-0.0
0.01055,-1.8808158170184517,-0.9419601820467626,-0.0,-0.019871721155347445,-0.009941320405949774,-0.0
0.0106,-1.8807764989992428,-0.9419552645808332,-0.0,-0.01996576096402136,-0.009988418292212248,-0.0
0.01065,-1.8807369953548356,-0.9419503238730894,-0.0,-0.02005979880215366,-0.010035515932020515,-0.0
0.010700000000000001,-1.8806973060891286,-0.9419453599236529,-0.0,-0.020153834660463193,-0.010082613324212217,-0.0
0.010750000000000001,-1.880657431206039,-0.9419403727326464,-0.0,-0.020247868529668856,-0.01012971046762554,-0.0
0.0108,-1.880617370709502,-0.9419353623001928,-0.0,-0.020341900400490148,-0.010176807361098146,-0.0
0.01085,-1.8805771246034721,-0.9419303286264157,-0.0,-0.020435930263646356,-0.010223904003468226,-0.0
0.0109,-1.880536692891921,-0.9419252717114395,-0.0,-0.02052995810985711,-0.010271000393573454,-0.0
0.01095,-1.8804960755788391,-0.9419201915553886,-0.0,-0.020623983929842233,-0.010318096530251905,-0.0
0.011000000000000001,-1.8804552726682355,-0.9419150881583886,-0.0,-0.02071800771432174,-0.010365192412341665,-0.0
0.01105,-1.880414284164137,-0.9419099615205655,-0.0,-0.02081202945401587,-0.010412288038680419,-0.0
0.0111,-1.880373110070589,-0.9419048116420456,-0.0,-0.02090604913964491,-0.010459383408106397,-0.0
0.01115,-1.8803317503916555,-0.9418996385229563,-0.0,-0.02100006676192975,-0.010506478519457301,-0.0
0.0112,-1.880290205131418,-0.9418944421634248,-0.0,-0.021094082311591093,-0.010553573371571373,-0.0
0.011250000000000001,-1.8802484742939776,-0.9418892225635795,-0.0,-0.02118809577934998,-0.010600667963286327,-0.0
0.011300000000000001,-1.8802065578834524,-0.9418839797235494,-0.0,-0.021282107155927647,-0.010647762293440282,-0.0
0.01135,-1.8801644559039792,-0.9418787136434634,-0.0,-0.02137611643204555,-0.010694856360871367,-0.0
0.0114,-1.880122168359714,-0.9418734243234519,-0.0,-0.021470123598425206,-0.010741950164417317,-0.0
0.01145,-1.88007969525483,-0.9418681117636452,-0.0,-0.021564128645788754,-0.010789043702916404,-0.0
0.0115,-1.8800370365935193,-0.9418627759641743,-0.0,-0.021658131564858126,-0.010836136975206375,-0.0
0.011550000000000001,-1.8799941923799917,-0.941857416925171,-0.0,-0.02175213234635561,-0.010883229980125383,-0.0
0.011600000000000001,-1.8799511626184762,-0.9418520346467675,-0.0,-0.0218461309810037,-0.01093032271651159,-0.0
0.01165,-1.8799079473132196,-0.9418466291290966,-0.0,-0.021940127459525102,-0.010977415183202761,-0.0
0.0117,-1.879864546468487,-0.9418412003722917,-0.0,-0.022034121772642738,-0.0110245073790372,-0.0
0.01175,-1.8798209600885618,-0.9418357483764865,-0.0,-0.02212811391107961,-0.011071599302852692,-0.0
0.0118,-1.8797771881777463,-0.9418302731418159,-0.0,-0.022222103865559322,-0.011118690953487555,-0.0
0.011850000000000001,-1.8797332307403598,-0.9418247746684147,-0.0,-0.022316091626805316,-0.011165782329779583,-0.0
0.0119,-1.8796890877807413,-0.9418192529564189,-0.0,-0.022410077185541364,-0.011212873430566974,-0.0
0.01195,-1.8796447593032475,-0.9418137080059644,-0.0,-0.022504060532491463,-0.011259964254687938,-0.0
0.012,-1.8796002453122531,-0.941808139817188,-0.0,-0.022598041658379836,-0.011307054800980288,-0.0
0.01205,-1.879555545812152,-0.9418025483902275,-0.0,-0.02269202055393078,-0.011354145068282374,-0.0
0.012100000000000001,-1.8795106608073555,-0.9417969337252206,-0.0,-0.022785997209869215,-0.011401235055432028,-0.0
0.012150000000000001,-1.8794655903022932,-0.9417912958223057,-0.0,-0.022879971616919886,-0.01144832476126762,-0.0
0.0122,-1.8794203343014142,-0.9417856346816221,-0.0,-0.02297394376580789,-0.011495414184626985,-0.0
0.01225,-1.8793748928091847,-0.9417799503033095,-0.0,-0.023067913647258548,-0.011542503324348374,-0.0
0.0123,-1.8793292658300895,-0.9417742426875081,-0.0,-0.023161881251997404,-0.011589592179270044,-0.0
0.01235,-1.879283453368632,-0.9417685118343586,-0.0,-0.023255846570750093,-0.011636680748229858,-0.0
0.012400000000000001,-1.8792374554293334,-0.9417627577440025,-0.0,-0.023349809594242876,-0.011683769030066214,-0.0
0.012450000000000001,-1.879191272016734,-0.941756980416582,-0.0,-0.023443770313201846,-0.011730857023616995,-0.0
0.0125,-1.8791449031353913,-0.9417511798522392,-0.0,-0.023537728718353444,-0.011777944727720611,-0.0
0.01255,-1.8790983487898822,-0.9417453560511178,-0.0,-0.023631684800424355,-0.011825032141214959,-0.0
0.0126,-1.8790516089848013,-0.9417395090133609,-0.0,-0.02372563855014148,-0.011872119262938333,-0.0
0.01265,-1.8790046837247616,-0.9417336387391132,-0.0,-0.023819589958231965,-0.011919206091729041,-0.0
0.012700000000000001,-1.8789575730143948,-0.9417277452285193,-0.0,-0.02391353901542303,-0.011966292626424993,-0.0
0.012750000000000001,-1.8789102768583499,-0.9417218284817246,-0.0,-0.024007485712442548,-0.012013378865864644,-0.0
0.0128,-1.878862795261295,-0.9417158884988753,-0.0,-0.02410143004001822,-0.01206046480888592,-0.0
0.01285,-1.8788151282279166,-0.9417099252801179,-0.0,-0.02419537198887811,-0.012107550454327154,-0.0
0.0129,-1.8787672757629192,-0.9417039388255994,-0.0,-0.024289311549750527,-0.012154635801026688,-0.0
0.012950000000000001,-1.8787192378710258,-0.9416979291354677,-0.0,-0.024383248713364,-0.012201720847822473,-0.0
0.013000000000000001,-1.878671014556977,-0.9416918962098709,-0.0,-0.02447718347044717,-0.012248805593552998,-0.0
0.01305,-1.8786226058255326,-0.9416858400489581,-0.0,-0.024571115811729317,-0.012295890037056228,-0.0
0.0131,-1.8785740116814706,-0.9416797606528783,-0.0,-0.024665045727939552,-0.012342974177170663,-0.0
0.01315,-1.8785252321295867,-0.9416736580217819,-0.0,-0.024758973209807373,-0.012390058012734287,-0.0
0.0132,-1.8784762671746953,-0.9416675321558193,-0.0,-0.024852898248062503,-0.01243714154258548,-0.0
0.013250000000000001,-1.8784271168216289,-0.9416613830551418,-0.0,-0.024946820833434916,-0.012484224765562643,-0.0
0.013300000000000001,-1.878377781075239,-0.941655210719901,-0.0,-0.025040740956654817,-0.012531307680503773,-0.0
0.01335,-1.878328259940394,-0.9416490151502491,-0.0,-0.02513465860845254,-0.012578390286247415,-0.0
0.0134,-1.8782785534219826,-0.9416427963463393,-0.0,-0.025228573779559043,-0.012625472581631582,-0.0
0.01345,-1.8782286615249093,-0.9416365543083246,-0.0,-0.025322486460705135,-0.012672554565494834,-0.0
0.0135,-1.8781785842540992,-0.9416302890363594,-0.0,-0.02541639664262201,-0.012719636236675201,-0.0
0.013550000000000001,-1.8781283216144944,-0.9416240005305981,-0.0,-0.025510304316041107,-0.012766717594011127,-0.0
0.013600000000000001,-1.8780778736110555,-0.9416176887911959,-0.0,-0.025604209471694107,-0.012813798636341054,-0.0
0.01365,-1.8780272402487619,-0.9416113538183086,-0.0,-0.025698112100312805,-0.012860879362503042,-0.0
0.0137,-1.8779764215326105,-0.9416049956120923,-0.0,-0.02579201219262966,-0.012907959771335685,-0.0
0.01375,-1.877925417467617,-0.9415986141727042,-0.0,-0.02588590973937696,-0.012955039861677052,-0.0
0.013800000000000002,-1.8778742280588154,-0.9415922095003014,-0.0,-0.025979804731287397,-0.013002119632365625,-0.0
0.013850000000000001,-1.877822853311258,-0.9415857815950422,-0.0,-0.026073697159093905,-0.01304919908223989,-0.0
0.013900000000000001,-1.877771293230015,-0.9415793304570851,-0.0,-0.026167587013529673,-0.013096278210137938,-0.0
0.01395,-1.8777195478201754,-0.9415728560865892,-0.0,-0.02626147428532814,-0.013143357014898409,-0.0
0.014,-1.8776676170868463,-0.9415663584837145,-0.0,-0.02635535896522287,-0.013190435495359412,-0.0
0.01405,-1.8776155010351527,-0.9415598376486212,-0.0,-0.02644924104394809,-0.013237513650359597,-0.0
0.014100000000000001,-1.8775631996702387,-0.9415532935814699,-0.0,-0.026543120512237874,-0.013284591478737095,-0.0
0.014150000000000001,-1.877510712997266,-0.9415467262824224,-0.0,-0.026636997360826687,-0.013331668979330436,-0.0
0.0142,-1.8774580410214148,-0.9415401357516409,-0.0,-0.02673087158044926,-0.013378746150978161,-0.0
0.01425,-1.8774051837478836,-0.9415335219892875,-0.0,-0.026824743161840577,-0.013425822992518427,-0.0
0.0143,-1.8773521411818896,-0.9415268849955257,-0.0,-0.02691861209573575,-0.01347289950278992,-0.0
0.01435,-1.8772989133286673,-0.9415202247705193,-0.0,-0.027012478372870557,-0.013519975680630812,-0.0
0.014400000000000001,-1.8772455001934705,-0.9415135413144327,-0.0,-0.02710634198398063,-0.01356705152487981,-0.0
0.014450000000000001,-1.8771919017815704,-0.9415068346274305,-0.0,-0.027200202919802,-0.013614127034375095,-0.0
0.0145,-1.8771381180982576,-0.9415001047096784,-0.0,-0.027294061171070968,-0.01366120220795526,-0.0
0.01455,-1.87708414914884,-0.9414933515613423,-0.0,-0.027387916728524097,-0.013708277044458908,-0.0
0.0146,-1.877029994938644,-0.941486575182589,-0.0,-0.02748176958289808,-0.013755351542724241,-0.0
0.014650000000000002,-1.8769756554730146,-0.9414797755735858,-0.0,-0.027575619724930278,-0.013802425701590017,-0.0
0.014700000000000001,-1.8769211307573148,-0.9414729527345,-0.0,-0.027669467145357923,-0.013849499519894453,-0.0
0.014750000000000001,-1.876866420796926,-0.9414661066655005,-0.0,-0.027763311834918643,-0.013896572996476321,-0.0
0.0148,-1.8768115255972477,-0.9414592373667559,-0.0,-0.027857153784350334,-0.013943646130173862,-0.0
0.01485,-1.8767564451636982,-0.9414523448384357,-0.0,-0.027950992984391177,-0.013990718919825723,-0.0
0.0149,-1.8767011795017134,-0.94144542908071,-0.0,-0.028044829425779606,-0.01403779136427057,-0.0
0.014950000000000001,-1.8766457286167482,-0.9414384900937496,-0.0,-0.028138663099254207,-0.014084863462346664,-0.0
0.015000000000000001,-1.8765900925142747,-0.9414315278777257,-0.0,-0.02823249399555423,-0.014131935212892813,-0.0
0.015050000000000001,-1.8765342711997846,-0.9414245424328097,-0.0,-0.028326322105418807,-0.014179006614747306,-0.0
0.0151,-1.8764782646787868,-0.9414175337591744,-0.0,-0.028420147419587476,-0.014226077666748837,-0.0
0.01515,-1.8764220729568093,-0.9414105018569924,-0.0,-0.028513969928800044,-0.014273148367736103,-0.0
0.0152,-1.8763656960393977,-0.9414034467264375,-0.0,-0.028607789623796606,-0.014320218716547418,-0.0
0.015250000000000001,-1.8763091339321165,-0.9413963683676836,-0.0,-0.028701606495317396,-0.014367288712021632,-0.0
0.015300000000000001,-1.8762523866405478,-0.9413892667809055,-0.0,-0.028795420534103323,-0.014414358352997071,-0.0
0.01535,-1.8761954541702928,-0.9413821419662781,-0.0,-0.02888923173089518,-0.01446142763831261,-0.0
0.0154,-1.8761383365269697,-0.9413749939239776,-0.0,-0.028983040076434173,-0.014508496566806594,-0.0
0.01545,-1.8760810337162166,-0.9413678226541802,-0.0,-0.029076845561461794,-0.014555565137317771,-0.0
0.0155,-1.8760235457436887,-0.9413606281570627,-0.0,-0.02917064817671981,-0.014602633348684911,-0.0
0.015550000000000001,-1.8759658726150599,-0.9413534104328029,-0.0,-0.029264447912950138,-0.01464970119974638,-0.0
0.015600000000000001,-1.8759080143360223,-0.9413461694815786,-0.0,-0.029358244760895384,-0.014696768689341095,-0.0
0.01565,-1.8758499709122864,-0.9413389053035687,-0.0,-0.029452038711298038,-0.014743835816307446,-0.0
0.015700000000000002,-1.8757917423495807,-0.9413316178989523,-0.0,-0.029545829754901005,-0.014790902579484363,-0.0
0.01575,-1.875733328653652,-0.9413243072679093,-0.0,-0.029639617882447483,-0.014837968977710255,-0.0
0.0158,-1.8756747298302654,-0.94131697341062,-0.0,-0.029733403084680955,-0.014885035009823938,-0.0
0.01585,-1.875615945885205,-0.9413096163272654,-0.0,-0.029827185352345187,-0.014932100674664236,-0.0
0.0159,-1.8755569768242724,-0.9413022360180269,-0.0,-0.029920964676184117,-0.014979165971069585,-0.0
0.015950000000000002,-1.875497822653287,-0.9412948324830869,-0.0,-0.030014741046942357,-0.015026230897878964,-0.0
0.016,-1.8754384833780877,-0.9412874057226277,-0.0,-0.030108514455364416,-0.015073295453930824,-0.0
0.016050000000000002,-1.8753789590045307,-0.941279955736833,-0.0,-0.030202284892195234,-0.015120359638064027,-0.0
0.0161,-1.8753192495384912,-0.9412724825258861,-0.0,-0.030296052348180037,-0.015167423449117442,-0.0
0.01615,-1.8752593549858616,-0.9412649860899718,-0.0,-0.03038981681406435,-0.015214486885929551,-0.0
0.0162,-1.875199275352554,-0.9412574664292749,-0.0,-0.03048357828059385,-0.015261549947339382,-0.0
0.01625,-1.8751390106444976,-0.9412499235439811,-0.0,-0.030577336738514933,-0.015308612632185425,-0.0
0.016300000000000002,-1.8750785608676406,-0.9412423574342762,-0.0,-0.030671092178573865,-0.015355674939306726,-0.0
0.01635,-1.8750179260279487,-0.941234768100347,-0.0,-0.03076484459151736,-0.015402736867541802,-0.0
0.0164,-1.8749571061314065,-0.941227155542381,-0.0,-0.03085859396809242,-0.01544979841572958,-0.0
0.01645,-1.874896101184017,-0.9412195197605657,-0.0,-0.03095234029904636,-0.015496859582708997,-0.0
0.0165,-1.8748349111918008,-0.9412118607550899,-0.0,-0.03104608357512678,-0.015543920367318597,-0.0
0.016550000000000002,-1.8747735361607973,-0.9412041785261421,-0.0,-0.031139823787081466,-0.015590980768397468,-0.0
0.0166,-1.8747119760970636,-0.9411964730739122,-0.0,-0.031233560925658894,-0.015638040784784178,-0.0
0.01665,-1.8746502310066762,-0.9411887443985902,-0.0,-0.03132729498160744,-0.01568510041531783,-0.0
0.0167,-1.8745883008957283,-0.9411809925003668,-0.0,-0.031421025945675925,-0.01573215965883701,-0.0
0.01675,-1.8745261857703324,-0.9411732173794333,-0.0,-0.031514753808613474,-0.01577921851418071,-0.0
0.016800000000000002,-1.8744638856366191,-0.9411654190359815,-0.0,-0.03160847856116953,-0.01582627698018793,-0.0
0.01685,-1.8744014005007377,-0.9411575974702039,-0.0,-0.03170220019409368,-0.01587333505569729,-0.0
0.016900000000000002,-1.8743387303688541,-0.9411497526822933,-0.0,-0.03179591869813624,-0.015920392739547935,-0.0
0.01695,-1.8742758752471544,-0.9411418846724436,-0.0,-0.03188963406404744,-0.015967450030578506,-0.0
0.017,-1.874212835141842,-0.9411339934408487,-0.0,-0.031983346282577936,-0.016014506927628038,-0.0
0.01705,-1.8741496100591384,-0.9411260789877032,-0.0,-0.03207705534447871,-0.016061563429535585,-0.0
0.0171,-1.8740862000052843,-0.9411181413132025,-0.0,-0.03217076124050104,-0.01610861953513981,-0.0
0.017150000000000002,-1.8740226049865374,-0.9411101804175426,-0.0,-0.03226446396139653,-0.016155675243279908,-0.0
0.0172,-1.8739588250091748,-0.9411021963009197,-0.0,-0.03235816349791696,-0.016202730552794566,-0.0
0.01725,-1.8738948600794907,-0.941094188963531,-0.0,-0.03245185984081482,-0.01624978546252301,-0.0
0.0173,-1.8738307102037985,-0.9410861584055739,-0.0,-0.03254555298084252,-0.016296839971303934,-0.0
0.01735,-1.87376637538843,-0.9410781046272467,-0.0,-0.03263924290875291,-0.016343894077976446,-0.0
0.017400000000000002,-1.873701855639734,-0.9410700276287479,-0.0,-0.03273292961529918,-0.016390947781379672,-0.0
0.01745,-1.8736371509640788,-0.9410619274102772,-0.0,-0.032826613091234816,-0.016438001080352344,-0.0
0.0175,-1.8735722613678505,-0.9410538039720339,-0.0,-0.032920293327313485,-0.016485053973733725,-0.0
0.01755,-1.8735071868574533,-0.9410456573142189,-0.0,-0.033013970314289605,-0.016532106460362576,-0.0
0.0176,-1.87344192743931,-0.941037487437033,-0.0,-0.03310764404291748,-0.016579158539078178,-0.0
0.017650000000000002,-1.873376483119861,-0.9410292943406778,-0.0,-0.03320131450395189,-0.01662621020871931,-0.0
0.0177,-1.8733108539055658,-0.9410210780253555,-0.0,-0.03329498168814793,-0.01667326146812515,-0.0
0.017750000000000002,-1.8732450398029017,-0.9410128384912688,-0.0,-0.033388645586261013,-0.01672031231613489,-0.0
0.0178,-1.8731790408183644,-0.9410045757386211,-0.0,-0.03348230618904676,-0.016767362751587325,-0.0
0.01785,-1.8731128569584672,-0.9409962897676161,-0.0,-0.0335759634872615,-0.0168144127733218,-0.0
0.0179,-1.8730464882297428,-0.9409879805784584,-0.0,-0.0336696174716615,-0.016861462380177137,-0.0
0.01795,-1.8729799346387412,-0.9409796481713529,-0.0,-0.03376326813300348,-0.016908511570992567,-0.0
0.018000000000000002,-1.8729131961920311,-0.9409712925465052,-0.0,-0.03385691546204449,-0.01695556034460733,-0.0
0.01805,-1.8728462728961992,-0.9409629137041218,-0.0,-0.03395055944954191,-0.01700260869986028,-0.0
0.0181,-1.872779164757851,-0.9409545116444089,-0.0,-0.034044200086253446,-0.01704965663559081,-0.0
0.01815,-1.872711871783609,-0.9409460863675742,-0.0,-0.034137837362937004,-0.017096704150637788,-0.0
0.0182,-1.8726443939801152,-0.9409376378738254,-0.0,-0.03423147127035122,-0.017143751243840637,-0.0
0.018250000000000002,-1.8725767313540296,-0.9409291661633711,-0.0,-0.03432510179925468,-0.017190797914038245,-0.0
0.0183,-1.8725088839120299,-0.9409206712364201,-0.0,-0.0344187289404064,-0.01723784416006992,-0.0
0.01835,-1.8724408516608129,-0.9409121530931822,-0.0,-0.03451235268456577,-0.017284889980774973,-0.0
0.0184,-1.8723726346070921,-0.9409036117338676,-0.0,-0.034605973022492485,-0.017331935374992325,-0.0
0.01845,-1.8723042327576014,-0.9408950471586869,-0.0,-0.03469958994494646,-0.017378980341561448,-0.0
0.018500000000000003,-1.872235646119091,-0.9408864593678515,-0.0,-0.03479320344268833,-0.017426024879321288,-0.0
0.01855,-1.8721668746983304,-0.9408778483615734,-0.0,-0.0348868135064787,-0.017473068987111328,-0.0
0.018600000000000002,-1.8720979185021072,-0.940869214140065,-0.0,-0.03498042012707862,-0.017520112663770543,-0.0
0.01865,-1.8720287775372266,-0.9408605567035391,-0.0,-0.035074023295249473,-0.01756715590813831,-0.0
0.0187,-1.8719594518105132,-0.9408518760522097,-0.0,-0.035167623001753016,-0.017614198719054005,-0.0
0.01875,-1.8718899413288088,-0.9408431721862908,-0.0,-0.03526121923735119,-0.017661241095356637,-0.0
0.0188,-1.871820246098974,-0.940834445105997,-0.0,-0.03535481199280667,-0.01770828303588575,-0.0
0.018850000000000002,-1.8717503661278874,-0.940825694811544,-0.0,-0.03544840125888211,-0.017755324539480356,-0.0
0.0189,-1.8716803014224457,-0.9408169213031472,-0.0,-0.0355419870263406,-0.017802365604980025,-0.0
0.01895,-1.871610051989564,-0.9408081245810237,-0.0,-0.0356355692859456,-0.0178494062312238,-0.0
0.019,-1.8715396178361758,-0.9407993046453901,-0.0,-0.035729148028460916,-0.017896446417051123,-0.0
0.01905,-1.8714689989692326,-0.9407904614964641,-0.0,-0.035822723244650696,-0.017943486161301467,-0.0
0.019100000000000002,-1.8713981953957044,-0.9407815951344641,-0.0,-0.035916294925279306,-0.017990525462813906,-0.0
0.01915,-1.8713272071225788,-0.9407727055596086,-0.0,-0.036009863061111855,-0.018037564320428055,-0.0
0.019200000000000002,-1.8712560341568625,-0.9407637927721172,-0.0,-0.0361034276429134,-0.01808460273298301,-0.0
0.01925,-1.8711846765055797,-0.9407548567722095,-0.0,-0.036196988661449485,-0.01813164069931828,-0.0
0.0193,-1.8711131341757734,-0.9407458975601062,-0.0,-0.03629054610748602,-0.018178678218273382,-0.0
0.019350000000000003,-1.8710414071745043,-0.9407369151360283,-0.0,-0.03638409997178925,-0.018225715288687445,-0.0
0.0194,-1.8709694955088518,-0.9407279095001976,-0.0,-0.03647765024512564,-0.018272751909400142,-0.0
0.019450000000000002,-1.870897399185913,-0.940718880652836,-0.0,-0.03657119691826242,-0.018319788079250627,-0.0
0.0195,-1.8708251182128035,-0.9407098285941664,-0.0,-0.03666473998196677,-0.01836682379707859,-0.0
0.01955,-1.8707526525966576,-0.9407007533244124,-0.0,-0.03675827942700636,-0.018413859061723215,-0.0
0.0196,-1.870680002344627,-0.9406916548437976,-0.0,-0.03685181524414922,-0.018460893872024074,-0.0
0.01965,-1.8706071674638818,-0.9406825331525466,-0.0,-0.03694534742416372,-0.01850792822682077,-0.0
0.019700000000000002,-1.870534147961611,-0.9406733882508844,-0.0,-0.037038875957818615,-0.01855496212495251,-0.0
0.01975,-1.8704609438450215,-0.9406642201390368,-0.0,-0.03713240083588289,-0.01860199556525904,-0.0
0.0198,-1.8703875551213374,-0.94065502881723,-0.0,-0.03722592204912624,-0.018649028546579603,-0.0
0.01985,-1.8703139817978025,-0.9406458142856905,-0.0,-0.0373194395883184,-0.01869606106775396,-0.0
0.0199,-1.870240223881678,-0.940636576544646,-0.0,-0.03741295344422952,-0.018743093127621367,-0.0
0.019950000000000002,-1.8701662813802438,-0.9406273155943244,-0.0,-0.03750646360763018,-0.01879012472502149,-0.0
0.02,-1.8700921543007973,-0.940618031434954,-0.0,-0.037599970069291284,-0.018837155858794002,-0.0
0.020050000000000002,-1.8700178426506548,-0.9406087240667641,-0.0,-0.03769347281998399,-0.018884186527778193,-0.0
0.0201,-1.8699433464371507,-0.9405993934899841,-0.0,-0.03778697185048021,-0.01893121673081389,-0.0
0.02015,-1.869868665667637,-0.9405900397048444,-0.0,-0.037880467151551814,-0.018978246466740404,-0.0
0.020200000000000003,-1.8697938003494847,-0.9405806627115759,-0.0,-0.037973958713971204,-0.019025275734397457,-0.0
0.02025,-1.869718750490083,-0.9405712625104097,-0.0,-0.038067446528511115,-0.019072304532624786,-0.0
0.020300000000000002,-1.8696435160968383,-0.9405618391015779,-0.0,-0.038160930585944684,-0.019119332860261726,-0.0
0.02035,-1.8695680971771766,-0.940552392485313,-0.0,-0.038254410877045404,-0.019166360716148172,-0.0
0.0204,-1.8694924937385413,-0.9405429226618479,-0.0,-0.038347887392586995,-0.01921338809912349,-0.0
0.02045,-1.8694167057883941,-0.9405334296314166,-0.0,-0.038441360123343975,-0.019260415008027595,-0.0
0.0205,-1.869340733334215,-0.9405239133942531,-0.0,-0.03853482906009081,-0.019307441441699876,-0.0
0.020550000000000002,-1.8692645763835019,-0.9405143739505923,-0.0,-0.03862829419360249,-0.019354467398980134,-0.0
0.0206,-1.8691882349437714,-0.9405048113006695,-0.0,-0.038721755514654385,-0.019401492878708185,-0.0
0.02065,-1.8691117090225582,-0.9404952254447208,-0.0,-0.038815213014022215,-0.019448517879723456,-0.0
0.0207,-1.869034998627415,-0.9404856163829823,-0.0,-0.03890866668248198,-0.019495542400865915,-0.0
0.02075,-1.8689581037659129,-0.9404759841156917,-0.0,-0.03900211651081043,-0.019542566440975014,-0.0
0.020800000000000003,-1.868881024445641,-0.9404663286430862,-0.0,-0.039095562489784304,-0.01958958999889075,-0.0
0.02085,-1.8688037606742067,-0.9404566499654043,-0.0,-0.03918900461018085,-0.019636613073452592,-0.0
0.020900000000000002,-1.8687263124592361,-0.9404469480828848,-0.0,-0.039282442862777704,-0.01968363566350043,-0.0
0.02095,-1.8686486798083721,-0.9404372229957668,-0.0,-0.03937587723835288,-0.01973065776787416,-0.0
0.021,-1.8685708627292776,-0.9404274747042907,-0.0,-0.03946930772768465,-0.019777679385413287,-0.0
0.021050000000000003,-1.8684928612296325,-0.9404177032086966,-0.0,-0.039562734321552044,-0.019824700514957872,-0.0
0.0211,-1.8684146753171351,-0.9404079085092258,-0.0,-0.039656157010734105,-0.019871721155347445,-0.0
0.021150000000000002,-1.8683363049995025,-0.94039809060612,-0.0,-0.039749575786010384,-0.019918741305422087,-0.0
0.0212,-1.868257750284469,-0.9403882494996214,-0.0,-0.039842990638160804,-0.01996576096402136,-0.0
0.02125,-1.8681790111797878,-0.9403783851899729,-0.0,-0.039936401557965705,-0.020012780129985218,-0.0
0.0213,-1.8681000876932303,-0.9403684976774178,-0.0,-0.040029808536205795,-0.02005979880215366,-0.0
0.02135,-1.8680209798325857,-0.9403585869622001,-0.0,-0.04012321156366203,-0.020106816979366268,-0.0
0.021400000000000002,-1.867941687605662,-0.9403486530445643,-0.0,-0.040216610631116194,-0.020153834660463193,-0.0
0.02145,-1.8678622110202847,-0.9403386959247555,-0.0,-0.04031000572935001,-0.020200851844284048,-0.0
0.021500000000000002,-1.867782550084298,-0.9403287156030194,-0.0,-0.040403396849145755,-0.020247868529668856,-0.0
0.02155,-1.867702704805564,-0.9403187120796023,-0.0,-0.040496783981286096,-0.02029488471545767,-0.0
0.0216,-1.8676226751919631,-0.940308685354751,-0.0,-0.0405901671165541,-0.020341900400490148,-0.0
0.021650000000000003,-1.867542461251394,-0.940298635428713,-0.0,-0.04068354624573322,-0.020388915583606483,-0.0
0.0217,-1.8674620629917738,-0.9402885623017361,-0.0,-0.040776921359607164,-0.020435930263646356,-0.0
0.021750000000000002,-1.8673814804210367,-0.9402784659740688,-0.0,-0.04087029244896045,-0.020482944439449997,-0.0
0.0218,-1.8673007135471364,-0.9402683464459605,-0.0,-0.040963659504577594,-0.02052995810985711,-0.0
0.02185,-1.8672197623780444,-0.9402582037176607,-0.0,-0.04105702251724362,-0.020576971273707813,-0.0
0.0219,-1.86713862692175,-0.9402480377894196,-0.0,-0.04115038147774398,-0.020623983929842233,-0.0
0.02195,-1.867057307186261,-0.9402378486614882,-0.0,-0.04124373637686438,-0.020670996077100115,-0.0
0.022000000000000002,-1.8669758031796035,-0.9402276363341178,-0.0,-0.04133708720539133,-0.02071800771432174,-0.0
0.02205,-1.8668941149098213,-0.9402174008075603,-0.0,-0.041430433954111334,-0.020765018840346892,-0.0
0.0221,-1.8668122423849767,-0.9402071420820685,-0.0,-0.04152377661381144,-0.02081202945401587,-0.0
0.02215,-1.8667301856131506,-0.9401968601578953,-0.0,-0.041617115175279086,-0.020859039554168474,-0.0
0.0222,-1.8666479446024415,-0.9401865550352945,-0.0,-0.04171044962930215,-0.02090604913964491,-0.0
0.022250000000000002,-1.8665655193609663,-0.9401762267145204,-0.0,-0.04180377996666886,-0.020953058209285388,-0.0
0.0223,-1.8664829098968598,-0.9401658751958277,-0.0,-0.041897106178167776,-0.02100006676192975,-0.0
0.022350000000000002,-1.8664001162182755,-0.9401555004794719,-0.0,-0.04199042825458822,-0.021047074796418364,-0.0
0.0224,-1.8663171383333845,-0.940145102565709,-0.0,-0.042083746186719534,-0.021094082311591093,-0.0
0.02245,-1.8662339762503768,-0.9401346814547956,-0.0,-0.04217705996535163,-0.02114108930628821,-0.0
0.022500000000000003,-1.8661506299774597,-0.9401242371469888,-0.0,-0.04227036958127478,-0.02118809577934998,-0.0
0.02255,-1.8660670995228597,-0.9401137696425462,-0.0,-0.04236367502527972,-0.021235101729616315,-0.0
0.022600000000000002,-1.8659833848948206,-0.9401032789417262,-0.0,-0.042456976288157554,-0.021282107155927647,-0.0
0.02265,-1.8658994861016047,-0.9400927650447874,-0.0,-0.04255027336069969,-0.021329112057123904,-0.0
0.0227,-1.8658154031514926,-0.9400822279519896,-0.0,-0.04264356623369834,-0.02137611643204555,-0.0
0.02275,-1.8657311360527828,-0.9400716676635926,-0.0,-0.042736854897945736,-0.021423120279532533,-0.0
0.0228,-1.865646684813792,-0.940061084179857,-0.0,-0.042830139344234665,-0.021470123598425206,-0.0
0.022850000000000002,-1.8655620494428555,-0.9400504775010439,-0.0,-0.042923419563358295,-0.021517126387563954,-0.0
0.0229,-1.8654772299483264,-0.940039847627415,-0.0,-0.043016695546110255,-0.021564128645788754,-0.0
0.02295,-1.8653922263385763,-0.9400291945592326,-0.0,-0.04310996728328445,-0.021611130371940138,-0.0
0.023,-1.865307038621994,-0.9400185182967596,-0.0,-0.04320323476567558,-0.021658131564858126,-0.0
0.02305,-1.8652216668069879,-0.9400078188402593,-0.0,-0.043296497984078385,-0.02170513222338327,-0.0
0.023100000000000002,-1.8651361109019835,-0.9399970961899958,-0.0,-0.04338975692928815,-0.02175213234635561,-0.0
0.02315,-1.865050370915425,-0.9399863503462338,-0.0,-0.0434830115921006,-0.0217991319326156,-0.0
0.023200000000000002,-1.8649644468557744,-0.9399755813092381,-0.0,-0.04357626196331185,-0.0218461309810037,-0.0
0.02325,-1.8648783387315124,-0.9399647890792747,-0.0,-0.043669508033718336,-0.021893129490359996,-0.0
0.0233,-1.8647920465511374,-0.9399539736566098,-0.0,-0.04376274979411731,-0.021940127459525102,-0.0
0.023350000000000003,-1.8647055703231656,-0.9399431350415103,-0.0,-0.04385598723530604,-0.021987124887339133,-0.0
0.0234,-1.8646189100561323,-0.9399322732342436,-0.0,-0.043949220348082345,-0.022034121772642738,-0.0
0.023450000000000002,-1.8645320657585909,-0.9399213882350775,-0.0,-0.04404244912324451,-0.022081118114276047,-0.0
0.0235,-1.864445037439112,-0.9399104800442809,-0.0,-0.04413567355159122,-0.02212811391107961,-0.0
0.02355,-1.864357825106285,-0.9398995486621229,-0.0,-0.04422889362392158,-0.022175109161893976,-0.0
0.0236,-1.864270428768718,-0.9398885940888732,-0.0,-0.04432210933103501,-0.022222103865559322,-0.0
0.02365,-1.8641828484350358,-0.9398776163248018,-0.0,-0.04441532066373175,-0.022269098020916367,-0.0
0.023700000000000002,-1.8640950841138826,-0.9398666153701799,-0.0,-0.04450852761281209,-0.022316091626805316,-0.0
0.02375,-1.8640071358139207,-0.9398555912252788,-0.0,-0.04460173016907688,-0.022363084682066773,-0.0
0.0238,-1.86391900354383,-0.9398445438903706,-0.0,-0.04469492832332736,-0.022410077185541364,-0.0
0.02385,-1.8638306873123085,-0.9398334733657279,-0.0,-0.044788122066365274,-0.022457069136069333,-0.0
0.0239,-1.8637421871280735,-0.9398223796516237,-0.0,-0.04488131138899262,-0.022504060532491463,-0.0
0.023950000000000003,-1.8636535029998587,-0.9398112627483319,-0.0,-0.044974496282012257,-0.022551051373648028,-0.0
0.024,-1.8635646349364174,-0.9398001226561266,-0.0,-0.04506767673622706,-0.022598041658379836,-0.0
0.024050000000000002,-1.8634755829465202,-0.9397889593752828,-0.0,-0.0451608527424405,-0.022645031385527186,-0.0
0.0241,-1.8633863470389564,-0.939777772906076,-0.0,-0.04525402429145646,-0.02269202055393078,-0.0
0.02415,-1.8632969272225333,-0.939766563248782,-0.0,-0.04534719137407929,-0.022739009162431347,-0.0
0.024200000000000003,-1.863207323506076,-0.9397553304036778,-0.0,-0.045440353981113756,-0.022785997209869215,-0.0
0.02425,-1.8631175358984287,-0.9397440743710399,-0.0,-0.04553351210336495,-0.022832984695085275,-0.0
0.024300000000000002,-1.8630275644084524,-0.9397327951511466,-0.0,-0.0456266657316388,-0.022879971616919886,-0.0
0.02435,-1.8629374090450268,-0.9397214927442761,-0.0,-0.04571981485674128,-0.022926957974213825,-0.0
0.0244,-1.8628470698170503,-0.9397101671507071,-0.0,-0.045812959469478935,-0.02297394376580789,-0.0
0.02445,-1.862756546733439,-0.9396988183707192,-0.0,-0.04590609956065876,-0.02302092899054248,-0.0
0.0245,-1.862665839803127,-0.9396874464045923,-0.0,-0.0459992351210882,-0.023067913647258548,-0.0
0.024550000000000002,-1.8625749490350672,-0.9396760512526072,-0.0,-0.046092366141575025,-0.023114897734796528,-0.0
0.0246,-1.8624838744382295,-0.9396646329150448,-0.0,-0.046185492612927814,-0.023161881251997404,-0.0
0.024650000000000002,-1.8623926160216027,-0.939653191392187,-0.0,-0.046278614525955226,-0.023208864197701632,-0.0
0.0247,-1.8623011737941941,-0.939641726684316,-0.0,-0.0463717318714665,-0.023255846570750093,-0.0
0.02475,-1.862209547765028,-0.9396302387917148,-0.0,-0.04646484464027132,-0.023302828369983673,-0.0
0.024800000000000003,-1.8621177379431484,-0.9396187277146667,-0.0,-0.04655795282317983,-0.023349809594242876,-0.0
0.02485,-1.8620257443376158,-0.939607193453456,-0.0,-0.04665105641100262,-0.023396790242368758,-0.0
0.024900000000000002,-1.8619335669575101,-0.939595636008367,-0.0,-0.04674415539455059,-0.023443770313201846,-0.0
0.02495,-1.8618412058119287,-0.9395840553796849,-0.0,-0.046837249764635526,-0.02349074980558322,-0.0
0.025,-1.861748660909987,-0.9395724515676956,-0.0,-0.046930339512069215,-0.023537728718353444,-0.0
0.025050000000000003,-1.861655932260819,-0.9395608245726854,-0.0,-0.04702342462766411,-0.023584707050353492,-0.0
0.0251,-1.8615630198735769,-0.9395491743949411,-0.0,-0.047116505102233044,-0.023631684800424355,-0.0
0.025150000000000002,-1.8614699237574304,-0.9395375010347502,-0.0,-0.047209580926589355,-0.023678661967406634,-0.0
0.0252,-1.861376643921568,-0.9395258044924006,-0.0,-0.0473026520915467,-0.02372563855014148,-0.0
0.02525,-1.8612831803751957,-0.9395140847681812,-0.0,-0.047395718587919584,-0.02377261454746953,-0.0
0.0253,-1.8611895331275385,-0.9395023418623808,-0.0,-0.047488780406522574,-0.023819589958231965,-0.0
0.02535,-1.8610957021878385,-0.9394905757752894,-0.0,-0.04758183753817084,-0.023866564781269434,-0.0
0.025400000000000002,-1.861001687565357,-0.9394787865071974,-0.0,-0.04767488997368002,-0.02391353901542303,-0.0
0.02545,-1.8609074892693722,-0.9394669740583953,-0.0,-0.04776793770386619,-0.02396051265953383,-0.0
0.025500000000000002,-1.8608131073091818,-0.9394551384291749,-0.0,-0.047860980719545795,-0.024007485712442548,-0.0
0.02555,-1.8607185416941003,-0.939443279619828,-0.0,-0.04795401901153611,-0.024054458172990435,-0.0
0.0256,-1.8606237924334614,-0.9394313976306475,-0.0,-0.04804705257065449,-0.02410143004001822,-0.0
0.025650000000000003,-1.8605288595366163,-0.9394194924619264,-0.0,-0.04814008138771889,-0.02414840131236719,-0.0
0.0257,-1.8604337430129345,-0.9394075641139583,-0.0,-0.04823310545354774,-0.02419537198887811,-0.0
0.025750000000000002,-1.8603384428718033,-0.9393956125870379,-0.0,-0.048326124758959935,-0.02424234206839216,-0.0
0.0258,-1.860242959122629,-0.9393836378814596,-0.0,-0.04841913929477483,-0.024289311549750527,-0.0
0.02585,-1.8601472917748356,-0.9393716399975194,-0.0,-0.048512149051812135,-0.024336280431794022,-0.0
0.025900000000000003,-1.8600514408378643,-0.9393596189355129,-0.0,-0.048605154020892403,-0.024383248713364,-0.0
0.02595,-1.8599554063211758,-0.9393475746957369,-0.0,-0.04869815419283629,-0.024430216393301295,-0.0
0.026000000000000002,-1.8598591882342481,-0.9393355072784885,-0.0,-0.04879114955846506,-0.02447718347044717,-0.0
0.02605,-1.8597627865865776,-0.9393234166840656,-0.0,-0.04888414010860042,-0.024524149943642878,-0.0
0.0261,-1.859666201387679,-0.9393113029127663,-0.0,-0.048977125834064564,-0.024571115811729317,-0.0
0.02615,-1.8595694326470844,-0.9392991659648898,-0.0,-0.04907010672568007,-0.0246180810735479,-0.0
0.0262,-1.859472480374345,-0.9392870058407353,-0.0,-0.04916308277427032,-0.024665045727939552,-0.0
0.026250000000000002,-1.859375344579029,-0.939274822540603,-0.0,-0.049256053970658825,-0.02471200977374573,-0.0
0.0263,-1.8592780252707237,-0.9392626160647933,-0.0,-0.04934902030566971,-0.024758973209807373,-0.0
0.026350000000000002,-1.8591805224590343,-0.9392503864136077,-0.0,-0.04944198177012755,-0.02480593603496584,-0.0
0.0264,-1.8590828361535838,-0.9392381335873476,-0.0,-0.04953493835485742,-0.024852898248062503,-0.0
0.02645,-1.8589849663640132,-0.9392258575863156,-0.0,-0.049627890050684756,-0.024899859847938348,-0.0
0.026500000000000003,-1.858886913099982,-0.9392135584108144,-0.0,-0.04972083684843583,-0.024946820833434916,-0.0
0.02655,-1.858788676371168,-0.9392012360611478,-0.0,-0.049813778738937046,-0.02499378120339322,-0.0
0.026600000000000002,-1.8586902561872662,-0.9391888905376194,-0.0,-0.0499067157130154,-0.025040740956654817,-0.0
0.02665,-1.8585916525579906,-0.9391765218405342,-0.0,-0.049999647761498386,-0.02508770009206077,-0.0
0.0267,-1.8584928654930735,-0.939164129970197,-0.0,-0.05009257487521398,-0.02513465860845254,-0.0
0.026750000000000003,-1.8583938950022636,-0.9391517149269141,-0.0,-0.05018549704499064,-0.025181616504671597,-0.0
0.0268,-1.85829474109533,-0.9391392767109913,-0.0,-0.05027841426165718,-0.025228573779559043,-0.0
0.026850000000000002,-1.858195403782058,-0.9391268153227356,-0.0,-0.05037132651604331,-0.025275530431956513,-0.0
0.0269,-1.8580958830722525,-0.9391143307624547,-0.0,-0.050464233798978825,-0.025322486460705135,-0.0
0.02695,-1.857996178975735,-0.9391018230304565,-0.0,-0.050557136101294135,-0.025369441864646448,-0.0
0.027,-1.857896291502347,-0.9390892921270496,-0.0,-0.05065003341382015,-0.02541639664262201,-0.0
0.02705,-1.8577962206619458,-0.9390767380525433,-0.0,-0.05074292572738829,-0.02546335079347299,-0.0
0.027100000000000003,-1.8576959664644088,-0.9390641608072472,-0.0,-0.05083581303283044,-0.025510304316041107,-0.0
0.02715,-1.8575955289196304,-0.9390515603914718,-0.0,-0.05092869532097886,-0.02555725720916756,-0.0
0.027200000000000002,-1.8574949080375234,-0.9390389368055277,-0.0,-0.05102157258266669,-0.025604209471694107,-0.0
0.02725,-1.8573941038280186,-0.9390262900497268,-0.0,-0.05111444480872719,-0.02565116110246197,-0.0
0.0273,-1.8572931163010655,-0.9390136201243809,-0.0,-0.05120731198999424,-0.025698112100312805,-0.0
0.027350000000000003,-1.8571919454666304,-0.9390009270298026,-0.0,-0.051300174117302214,-0.025745062464088277,-0.0
0.0274,-1.857090591334699,-0.9389882107663052,-0.0,-0.05139303118148585,-0.02579201219262966,-0.0
0.027450000000000002,-1.8569890539152742,-0.9389754713342023,-0.0,-0.0514858831733808,-0.02583896128477878,-0.0
0.0275,-1.8568873332183777,-0.9389627087338085,-0.0,-0.0515787300838228,-0.02588590973937696,-0.0
0.02755,-1.8567854292540484,-0.9389499229654384,-0.0,-0.051671571903648225,-0.025932857555266052,-0.0
0.027600000000000003,-1.8566833420323443,-0.9389371140294077,-0.0,-0.05176440862369395,-0.025979804731287397,-0.0
0.02765,-1.856581071563341,-0.9389242819260324,-0.0,-0.051857240234797375,-0.026026751266282757,-0.0
0.027700000000000002,-1.8564786178571322,-0.938911426655629,-0.0,-0.051950066727796375,-0.026073697159093905,-0.0
0.02775,-1.8563759809238294,-0.9388985482185148,-0.0,-0.052042888093529215,-0.02612064240856223,-0.0
0.027800000000000002,-1.8562731607735625,-0.9388856466150075,-0.0,-0.052135704322835055,-0.026167587013529673,-0.0
0.02785,-1.8561701574164797,-0.9388727218454256,-0.0,-0.05222851540655316,-0.02621453097283765,-0.0
0.0279,-1.8560669708627466,-0.9388597739100877,-0.0,-0.05232132133552346,-0.02626147428532814,-0.0
0.027950000000000003,-1.8559636011225478,-0.9388468028093135,-0.0,-0.05241412210058637,-0.026308416949842588,-0.0
0.028,-1.855860048206085,-0.9388338085434231,-0.0,-0.052506917692582825,-0.02635535896522287,-0.0
0.028050000000000002,-1.855756312123579,-0.938820791112737,-0.0,-0.05259970810235425,-0.026402300330310872,-0.0
0.0281,-1.8556523928852677,-0.9388077505175764,-0.0,-0.052692493320742495,-0.02644924104394809,-0.0
0.02815,-1.8555482905014076,-0.938794686758263,-0.0,-0.05278527333859027,-0.02649618110497658,-0.0
0.028200000000000003,-1.8554440049822736,-0.9387815998351193,-0.0,-0.052878048146740415,-0.026543120512237874,-0.0
0.02825,-1.8553395363381575,-0.9387684897484682,-0.0,-0.05297081773603645,-0.02659005926457392,-0.0
0.028300000000000002,-1.8552348845793705,-0.938755356498633,-0.0,-0.053063582097322363,-0.026636997360826687,-0.0
0.02835,-1.8551300497162413,-0.9387422000859378,-0.0,-0.053156341221442686,-0.026683934799837758,-0.0
0.0284,-1.8550250317591166,-0.9387290205107074,-0.0,-0.053249095099242326,-0.02673087158044926,-0.0
0.028450000000000003,-1.8549198307183612,-0.9387158177732668,-0.0,-0.05334184372156711,-0.02677780770150281,-0.0
0.0285,-1.854814446604358,-0.9387025918739418,-0.0,-0.05343458707926299,-0.026824743161840577,-0.0
0.028550000000000002,-1.854708879427508,-0.9386893428130589,-0.0,-0.05352732516317655,-0.026871677960304204,-0.0
0.0286,-1.8546031291982303,-0.9386760705909448,-0.0,-0.05362005796415491,-0.02691861209573575,-0.0
0.028650000000000002,-1.854497195926962,-0.938662775207927,-0.0,-0.05371278547304571,-0.026965545566977302,-0.0
0.0287,-1.8543910796241587,-0.9386494566643336,-0.0,-0.05380550768069698,-0.027012478372870557,-0.0
0.02875,-1.8542847803002929,-0.9386361149604933,-0.0,-0.05389822457795768,-0.027059410512257753,-0.0
0.028800000000000003,-1.8541782979658565,-0.9386227500967352,-0.0,-0.053990936155676884,-0.02710634198398063,-0.0
0.02885,-1.8540716326313587,-0.9386093620733891,-0.0,-0.05408364240470431,-0.027153272786881323,-0.0
0.028900000000000002,-1.853964784307327,-0.9385959508907852,-0.0,-0.05417634331589023,-0.027200202919802,-0.0
0.02895,-1.8538577530043066,-0.9385825165492547,-0.0,-0.054269038880085434,-0.027247132381584438,-0.0
0.029,-1.8537505387328614,-0.9385690590491288,-0.0,-0.054361729088141235,-0.027294061171070968,-0.0
0.029050000000000003,-1.8536431415035735,-0.9385555783907398,-0.0,-0.05445441393090933,-0.027340989287103403,-0.0
0.0291,-1.8535355613270412,-0.93854207457442,-0.0,-0.05454709339924237,-0.027387916728524097,-0.0
0.029150000000000002,-1.8534277982138834,-0.9385285476005029,-0.0,-0.054639767483993136,-0.027434843494174906,-0.0
0.0292,-1.8533198521747358,-0.938514997469322,-0.0,-0.05473243617601504,-0.02748176958289808,-0.0
0.02925,-1.8532117232202516,-0.9385014241812117,-0.0,-0.05482509946616206,-0.027528694993535906,-0.0
0.029300000000000003,-1.8531034113611033,-0.9384878277365073,-0.0,-0.05491775734528869,-0.027575619724930278,-0.0
0.02935,-1.852994916607981,-0.9384742081355437,-0.0,-0.055010409804249844,-0.02762254377592364,-0.0
0.029400000000000003,-1.8528862389715919,-0.9384605653786574,-0.0,-0.05510305683390135,-0.027669467145357923,-0.0
0.02945,-1.8527773784626629,-0.9384468994661848,-0.0,-0.05519569842509917,-0.0277163898320756,-0.0
0.029500000000000002,-1.8526683350919373,-0.938433210398463,-0.0,-0.055288334568699964,-0.027763311834918643,-0.0
0.02955,-1.8525591088701778,-0.9384194981758299,-0.0,-0.05538096525556089,-0.02781023315272942,-0.0
0.0296,-1.8524496998081645,-0.9384057627986239,-0.0,-0.05547359047653968,-0.027857153784350334,-0.0
0.029650000000000003,-1.852340107916696,-0.9383920042671837,-0.0,-0.05556621022249446,-0.0279040737286234,-0.0
0.0297,-1.8522303332065877,-0.9383782225818491,-0.0,-0.05565882448428428,-0.027950992984391177,-0.0
0.029750000000000002,-1.8521203756886742,-0.9383644177429599,-0.0,-0.055751433252768365,-0.027997911550495712,-0.0
0.0298,-1.8520102353738086,-0.9383505897508567,-0.0,-0.055844036518806574,-0.028044829425779606,-0.0
0.02985,-1.8518999122728605,-0.9383367386058808,-0.0,-0.055936634273259345,-0.028091746609084936,-0.0
0.029900000000000003,-1.8517894063967189,-0.9383228643083741,-0.0,-0.05602922650698765,-0.028138663099254207,-0.0
0.02995,-1.8516787177562897,-0.9383089668586785,-0.0,-0.05612181321085299,-0.028185578895129924,-0.0
0.030000000000000002,-1.8515678463624983,-0.9382950462571373,-0.0,-0.0562143943757173,-0.02823249399555423,-0.0
0.03005,-1.8514567922262863,-0.9382811025040939,-0.0,-0.05630696999244344,-0.0282794083993698,-0.0
0.030100000000000002,-1.8513455553586151,-0.9382671355998923,-0.0,-0.05639954005189444,-0.028326322105418807,-0.0
0.03015,-1.8512341357704627,-0.938253145544877,-0.0,-0.056492104544934,-0.028373235112543832,-0.0
0.0302,-1.851122533472826,-0.9382391323393934,-0.0,-0.05658466346242637,-0.028420147419587476,-0.0
0.030250000000000003,-1.85101074847672,-0.9382250959837872,-0.0,-0.05667721679523635,-0.028467059025391955,-0.0
0.0303,-1.8508987807931772,-0.9382110364784046,-0.0,-0.05676976453422929,-0.028513969928800044,-0.0
0.030350000000000002,-1.8507866304332485,-0.9381969538235928,-0.0,-0.05686230667027097,-0.028560880128653994,-0.0
0.0304,-1.8506742974080022,-0.9381828480196989,-0.0,-0.056954843194228104,-0.028607789623796606,-0.0
0.03045,-1.8505617817285256,-0.9381687190670712,-0.0,-0.05704737409696758,-0.028654698413070175,-0.0
0.030500000000000003,-1.8504490834059237,-0.9381545669660583,-0.0,-0.05713989936935695,-0.028701606495317396,-0.0
0.03055,-1.8503362024513188,-0.9381403917170092,-0.0,-0.057232419002264334,-0.028748513869380998,-0.0
0.030600000000000002,-1.850223138875852,-0.9381261933202739,-0.0,-0.05732493298655844,-0.028795420534103323,-0.0
0.03065,-1.850109892690683,-0.9381119717762026,-0.0,-0.05741744131310834,-0.028842326488327255,-0.0
0.0307,-1.8499964639069877,-0.9380977270851464,-0.0,-0.05750994397278411,-0.02888923173089518,-0.0
0.030750000000000003,-1.8498828525359616,-0.9380834592474564,-0.0,-0.05760244095645596,-0.028936136260650017,-0.0
0.0308,-1.8497690585888176,-0.9380691682634849,-0.0,-0.05769493225499481,-0.028983040076434173,-0.0
0.030850000000000002,-1.8496550820767865,-0.9380548541335845,-0.0,-0.05778741785927213,-0.029029943177090487,-0.0
0.0309,-1.8495409230111175,-0.9380405168581083,-0.0,-0.05787989776015996,-0.029076845561461794,-0.0
0.030950000000000002,-1.849426581403078,-0.9380261564374102,-0.0,-0.057972371948530776,-0.029123747228390562,-0.0
0.031,-1.8493120572639523,-0.9380117728718443,-0.0,-0.058064840415258,-0.02917064817671981,-0.0
0.03105,-1.8491973506050443,-0.9379973661617659,-0.0,-0.05815730315121522,-0.02921754840529203,-0.0
0.031100000000000003,-1.8490824614376744,-0.9379829363075299,-0.0,-0.05824976014727674,-0.029264447912950138,-0.0
0.03115,-1.848967389773182,-0.9379684833094929,-0.0,-0.05834221139431742,-0.02931134669853707,-0.0
0.031200000000000002,-1.8488521356229244,-0.9379540071680111,-0.0,-0.058434656883212664,-0.029358244760895384,-0.0
0.03125,-1.8487366989982763,-0.937939507883442,-0.0,-0.058527096604838506,-0.029405142098868176,-0.0
0.0313,-1.8486210799106315,-0.9379249854561432,-0.0,-0.05861953055007135,-0.029452038711298038,-0.0
0.03135,-1.8485052783714007,-0.9379104398864729,-0.0,-0.05871195870978861,-0.0294989345970281,-0.0
0.031400000000000004,-1.8483892943920126,-0.9378958711747903,-0.0,-0.05880438107486787,-0.029545829754901005,-0.0
0.03145,-1.8482731279839153,-0.9378812793214546,-0.0,-0.05889679763618738,-0.029592724183759776,-0.0
0.0315,-1.8481567791585733,-0.937866664326826,-0.0,-0.05898920838462601,-0.029639617882447483,-0.0
0.03155,-1.84804024792747,-0.937852026191265,-0.0,-0.05908161331106319,-0.029686510849806797,-0.0
0.0316,-1.8479235343021068,-0.9378373649151327,-0.0,-0.05917401240637877,-0.029733403084680955,-0.0
0.031650000000000005,-1.8478066382940024,-0.9378226804987913,-0.0,-0.059266405661453594,-0.029780294585912664,-0.0
0.0317,-1.8476895599146943,-0.9378079729426025,-0.0,-0.05935879306716869,-0.029827185352345187,-0.0
0.03175,-1.8475722991757375,-0.9377932422469297,-0.0,-0.05945117461440578,-0.029874075382821285,-0.0
0.0318,-1.8474548560887052,-0.9377784884121362,-0.0,-0.05954355029404717,-0.029920964676184117,-0.0
0.03185,-1.8473372306651887,-0.9377637114385858,-0.0,-0.05963592009697574,-0.029967853231276875,-0.0
0.031900000000000005,-1.847219422916797,-0.9377489113266435,-0.0,-0.05972828401407498,-0.030014741046942357,-0.0
0.03195,-1.8471014328551576,-0.9377340880766742,-0.0,-0.05982064203622878,-0.030061628122023922,-0.0
0.032,-1.8469832604919152,-0.9377192416890439,-0.0,-0.059912994154322045,-0.030108514455364416,-0.0
0.03205,-1.8468649058387332,-0.9377043721641186,-0.0,-0.06000534035923985,-0.030155400045807225,-0.0
0.032100000000000004,-1.8467463689072925,-0.9376894795022653,-0.0,-0.06009768064186799,-0.030202284892195234,-0.0
0.032150000000000005,-1.8466276497092926,-0.9376745637038517,-0.0,-0.06019001499309284,-0.030249168993371732,-0.0
0.0322,-1.8465087482564502,-0.9376596247692456,-0.0,-0.060282343403801376,-0.030296052348180037,-0.0
0.03225,-1.8463896645605007,-0.9376446626988155,-0.0,-0.06037466586488101,-0.03034293495546308,-0.0
0.0323,-1.8462703986331974,-0.9376296774929308,-0.0,-0.060466982367220146,-0.03038981681406435,-0.0
0.032350000000000004,-1.8461509504863105,-0.9376146691519611,-0.0,-0.060559292901707376,-0.03043669792282681,-0.0
0.0324,-1.8460313201316298,-0.937599637676277,-0.0,-0.06065159745923202,-0.03048357828059385,-0.0
0.03245,-1.8459115075809625,-0.9375845830662489,-0.0,-0.06074389603068398,-0.030530457886208888,-0.0
0.0325,-1.845791512846133,-0.9375695053222488,-0.0,-0.06083618860695375,-0.030577336738514933,-0.0
0.03255,-1.845671335938985,-0.9375544044446483,-0.0,-0.06092847517893243,-0.030624214836355572,-0.0
0.032600000000000004,-1.8455509768713787,-0.9375392804338203,-0.0,-0.06102075573751156,-0.030671092178573865,-0.0
0.03265,-1.8454304356551936,-0.9375241332901375,-0.0,-0.06111303027358367,-0.030717968764013427,-0.0
0.0327,-1.8453097123023265,-0.9375089630139744,-0.0,-0.06120529877804151,-0.03076484459151736,-0.0
0.03275,-1.8451888068246924,-0.9374937696057045,-0.0,-0.06129756124177853,-0.030811719659929175,-0.0
0.0328,-1.845067719234224,-0.9374785530657033,-0.0,-0.06138981765568881,-0.03085859396809242,-0.0
0.032850000000000004,-1.8449464495428722,-0.9374633133943459,-0.0,-0.06148206801066698,-0.030905467514850245,-0.0
0.0329,-1.8448249977626063,-0.9374480505920085,-0.0,-0.06157431229760819,-0.03095234029904636,-0.0
0.03295,-1.8447033639054125,-0.9374327646590676,-0.0,-0.06166655050740853,-0.030999212319523958,-0.0
0.033,-1.8445815479832957,-0.9374174555959004,-0.0,-0.061758782630964355,-0.03104608357512678,-0.0
0.03305,-1.8444595500082788,-0.9374021234028846,-0.0,-0.06185100865917269,-0.031092954064698072,-0.0
0.033100000000000004,-1.8443373699924024,-0.9373867680803987,-0.0,-0.061943228582931206,-0.031139823787081466,-0.0
0.03315,-1.8442150079477253,-0.9373713896288212,-0.0,-0.06203544239313816,-0.031186692741120646,-0.0
0.0332,-1.8440924638863243,-0.9373559880485318,-0.0,-0.06212765008069227,-0.031233560925658894,-0.0
0.03325,-1.8439697378202937,-0.9373405633399107,-0.0,-0.062219851636493295,-0.03128042833954005,-0.0
0.0333,-1.843846829761746,-0.9373251155033381,-0.0,-0.06231204705144114,-0.03132729498160744,-0.0
0.033350000000000005,-1.8437237397228123,-0.9373096445391953,-0.0,-0.0624042363164365,-0.03137416085070481,-0.0
0.0334,-1.8436004677156403,-0.9372941504478641,-0.0,-0.062496419422380656,-0.031421025945675925,-0.0
0.03345,-1.8434770137523973,-0.9372786332297268,-0.0,-0.0625885963601755,-0.03146789026536417,-0.0
0.0335,-1.843353377845267,-0.9372630928851662,-0.0,-0.06268076712072354,-0.031514753808613474,-0.0
0.03355,-1.8432295600064525,-0.9372475294145659,-0.0,-0.06277293169492774,-0.03156161657426727,-0.0
0.033600000000000005,-1.8431055602481734,-0.9372319428183096,-0.0,-0.06286509007369209,-0.03160847856116953,-0.0
0.03365,-1.8429813785826685,-0.9372163330967822,-0.0,-0.0629572422479208,-0.031655339768163704,-0.0
0.0337,-1.8428570150221935,-0.9372007002503688,-0.0,-0.06304938820851883,-0.03170220019409368,-0.0
0.03375,-1.8427324695790233,-0.9371850442794549,-0.0,-0.0631415279463917,-0.03174905983780336,-0.0
0.033800000000000004,-1.8426077422654494,-0.9371693651844271,-0.0,-0.06323366145244559,-0.03179591869813624,-0.0
0.033850000000000005,-1.8424828330937824,-0.9371536629656719,-0.0,-0.06332578871758718,-0.03184277677393642,-0.0
0.0339,-1.8423577420763502,-0.9371379376235772,-0.0,-0.06341790973272413,-0.03188963406404744,-0.0
0.03395,-1.8422324692254983,-0.9371221891585306,-0.0,-0.0635100244887643,-0.031936490567313416,-0.0
0.034,-1.8421070145535914,-0.937106417570921,-0.0,-0.06360213297661636,-0.031983346282577936,-0.0
0.034050000000000004,-1.8419813780730108,-0.9370906228611372,-0.0,-0.06369423518718956,-0.03203020120868503,-0.0
0.0341,-1.8418555597961566,-0.9370748050295692,-0.0,-0.06378633111139377,-0.03207705534447871,-0.0
0.03415,-1.8417295597354466,-0.9370589640766073,-0.0,-0.06387842074013936,-0.032123908688802646,-0.0
0.0342,-1.841603377903316,-0.9370431000026421,-0.0,-0.0639705040643377,-0.03217076124050104,-0.0
0.03425,-1.8414770143122192,-0.9370272128080652,-0.0,-0.0640625810749004,-0.03221761299841759,-0.0
0.034300000000000004,-1.8413504689746276,-0.9370113024932687,-0.0,-0.06415465176273985,-0.03226446396139653,-0.0
0.03435,-1.8412237419030302,-0.936995369058645,-0.0,-0.06424671611876902,-0.03231131412828161,-0.0
0.0344,-1.841096833109935,-0.9369794125045874,-0.0,-0.0643387741339015,-0.03235816349791696,-0.0
0.03445,-1.8409697426078673,-0.9369634328314893,-0.0,-0.06443082579905156,-0.03240501206914677,-0.0
0.0345,-1.8408424704093707,-0.9369474300397453,-0.0,-0.06452287110513392,-0.03245185984081482,-0.0
0.034550000000000004,-1.8407150165270056,-0.9369314041297502,-0.0,-0.06461491004306436,-0.03249870681176546,-0.0
0.0346,-1.8405873809733517,-0.9369153551018993,-0.0,-0.06470694260375881,-0.03254555298084252,-0.0
0.03465,-1.8404595637610064,-0.9368992829565888,-0.0,-0.06479896877813408,-0.03259239834689025,-0.0
0.0347,-1.840331564902584,-0.936883187694215,-0.0,-0.06489098855710752,-0.03263924290875291,-0.0
0.03475,-1.8402033844107184,-0.9368670693151752,-0.0,-0.06498300193159716,-0.03268608666527441,-0.0
0.034800000000000005,-1.84007502229806,-0.936850927819867,-0.0,-0.06507500889252162,-0.03273292961529918,-0.0
0.03485,-1.8399464785772779,-0.9368347632086889,-0.0,-0.06516700943080007,-0.032779771757671154,-0.0
0.0349,-1.8398177532610585,-0.9368185754820394,-0.0,-0.06525900353735267,-0.032826613091234816,-0.0
0.03495,-1.8396888463621064,-0.9368023646403182,-0.0,-0.06535099120309984,-0.032873453614834125,-0.0
0.035,-1.8395597578931449,-0.9367861306839252,-0.0,-0.06544297241896276,-0.032920293327313485,-0.0
0.035050000000000005,-1.8394304878669137,-0.936769873613261,-0.0,-0.06553494717586324,-0.0329671322275173,-0.0
0.0351,-1.839301036296172,-0.9367535934287267,-0.0,-0.0656269154647236,-0.033013970314289605,-0.0
0.03515,-1.8391714031936952,-0.9367372901307238,-0.0,-0.06571887727646723,-0.03306080758647497,-0.0
0.0352,-1.8390415885722784,-0.936720963719655,-0.0,-0.06581083260201771,-0.03310764404291748,-0.0
0.035250000000000004,-1.8389115924447337,-0.9367046141959227,-0.0,-0.0659027814322994,-0.03315447968246175,-0.0
0.035300000000000005,-1.8387814148238908,-0.9366882415599305,-0.0,-0.06599472375823734,-0.03320131450395189,-0.0
0.03535,-1.8386510557225981,-0.9366718458120824,-0.0,-0.06608665957075716,-0.03324814850623243,-0.0
0.0354,-1.8385205151537212,-0.9366554269527829,-0.0,-0.06617858886078518,-0.03329498168814793,-0.0
0.03545,-1.8383897931301445,-0.9366389849824373,-0.0,-0.0662705116192482,-0.03334181404854255,-0.0
0.035500000000000004,-1.8382588896647691,-0.9366225199014508,-0.0,-0.06636242783707406,-0.033388645586261013,-0.0
0.03555,-1.838127804770515,-0.9366060317102302,-0.0,-0.06645433750519089,-0.03343547630014754,-0.0
0.0356,-1.8379965384603194,-0.9365895204091822,-0.0,-0.06654624061452756,-0.03348230618904676,-0.0
0.03565,-1.8378650907471383,-0.9365729859987139,-0.0,-0.06663813715601359,-0.03352913525180332,-0.0
0.0357,-1.8377334616439447,-0.9365564284792336,-0.0,-0.06673002712057916,-0.0335759634872615,-0.0
0.035750000000000004,-1.83760165116373,-0.9365398478511497,-0.0,-0.06682191049915506,-0.03362279089426612,-0.0
0.0358,-1.8374696593195035,-0.9365232441148714,-0.0,-0.0669137872826727,-0.0336696174716615,-0.0
0.03585,-1.837337486124292,-0.9365066172708082,-0.0,-0.06700565746206441,-0.0337164432182925,-0.0
0.0359,-1.8372051315911406,-0.9364899673193706,-0.0,-0.06709752102826287,-0.03376326813300348,-0.0
0.03595,-1.837072595733112,-0.9364732942609693,-0.0,-0.0671893779722015,-0.03381009221463921,-0.0
0.036000000000000004,-1.8369398785632873,-0.9364565980960156,-0.0,-0.06728122828481435,-0.03385691546204449,-0.0
0.03605,-1.8368069800947653,-0.9364398788249215,-0.0,-0.06737307195703608,-0.033903737874063734,-0.0
0.0361,-1.8366739003406618,-0.9364231364480996,-0.0,-0.06746490897980231,-0.03395055944954191,-0.0
0.03615,-1.8365406393141117,-0.936406370965963,-0.0,-0.06755673934404899,-0.03399738018732347,-0.0
0.0362,-1.8364071970282676,-0.9363895823789254,-0.0,-0.06764856304071278,-0.034044200086253446,-0.0
0.036250000000000004,-1.8362735734962992,-0.936372770687401,-0.0,-0.06774038006073108,-0.034091019145176316,-0.0
0.0363,-1.836139768731395,-0.9363559358918045,-0.0,-0.0678321903950419,-0.034137837362937004,-0.0
0.03635,-1.8360057827467609,-0.9363390779925514,-0.0,-0.06792399403458393,-0.034184654738380456,-0.0
0.0364,-1.8358716155556207,-0.9363221969900576,-0.0,-0.06801579097029638,-0.03423147127035122,-0.0
0.03645,-1.8357372671712162,-0.9363052928847397,-0.0,-0.06810758119311952,-0.03427828695769443,-0.0
0.036500000000000005,-1.8356027376068071,-0.9362883656770148,-0.0,-0.06819936469399387,-0.03432510179925468,-0.0
0.03655,-1.835468026875671,-0.9362714153673005,-0.0,-0.0682911414638608,-0.03437191579387699,-0.0
0.0366,-1.8353331349911028,-0.9362544419560149,-0.0,-0.06838291149366227,-0.0344187289404064,-0.0
0.03665,-1.8351980619664165,-0.9362374454435772,-0.0,-0.06847467477434094,-0.03446554123768759,-0.0
0.0367,-1.8350628078149431,-0.9362204258304064,-0.0,-0.06856643129684016,-0.03451235268456577,-0.0
0.036750000000000005,-1.8349273725500317,-0.9362033831169225,-0.0,-0.06865818105210378,-0.034559163279885646,-0.0
0.0368,-1.8347917561850489,-0.9361863173035461,-0.0,-0.06874992403107674,-0.034605973022492485,-0.0
0.03685,-1.8346559587333797,-0.9361692283906983,-0.0,-0.06884166022470423,-0.03465278191123103,-0.0
0.0369,-1.8345199802084264,-0.9361521163788007,-0.0,-0.06893338962393222,-0.03469958994494646,-0.0
0.036950000000000004,-1.8343838206236103,-0.9361349812682754,-0.0,-0.06902511221970745,-0.03474639712248395,-0.0
0.037000000000000005,-1.8342474799923691,-0.9361178230595455,-0.0,-0.0691168280029772,-0.03479320344268833,-0.0
0.03705,-1.8341109583281598,-0.9361006417530341,-0.0,-0.06920853696468937,-0.034840008904404966,-0.0
0.0371,-1.8339742556444558,-0.9360834373491652,-0.0,-0.06930023909579293,-0.0348868135064787,-0.0
0.03715,-1.8338373719547494,-0.9360662098483633,-0.0,-0.06939193438723709,-0.034933617247754956,-0.0
0.037200000000000004,-1.8337003072725508,-0.9360489592510536,-0.0,-0.06948362282997189,-0.03498042012707862,-0.0
0.03725,-1.8335630616113872,-0.9360316855576615,-0.0,-0.06957530441494807,-0.03502722214329501,-0.0
0.0373,-1.8334256349848044,-0.9360143887686133,-0.0,-0.069666979133117,-0.035074023295249473,-0.0
0.03735,-1.8332880274063663,-0.935997068884336,-0.0,-0.0697586469754306,-0.035120823581786975,-0.0
0.0374,-1.8331502388896537,-0.9359797259052566,-0.0,-0.0698503079328419,-0.035167623001753016,-0.0
0.037450000000000004,-1.8330122694482658,-0.9359623598318033,-0.0,-0.06994196199630419,-0.03521442155399262,-0.0
0.0375,-1.8328741190958198,-0.9359449706644044,-0.0,-0.07003360915677158,-0.03526121923735119,-0.0
0.03755,-1.8327357878459505,-0.9359275584034892,-0.0,-0.07012524940519886,-0.035308016050674185,-0.0
0.0376,-1.8325972757123108,-0.935910123049487,-0.0,-0.07021688273254148,-0.03535481199280667,-0.0
0.03765,-1.832458582708571,-0.9358926646028282,-0.0,-0.07030850912975563,-0.03540160706259428,-0.0
0.037700000000000004,-1.8323197088484202,-0.9358751830639437,-0.0,-0.07040012858779798,-0.03544840125888211,-0.0
0.03775,-1.832180654145564,-0.9358576784332644,-0.0,-0.07049174109762633,-0.03549519458051583,-0.0
0.0378,-1.8320414186137268,-0.9358401507112228,-0.0,-0.07058334665019876,-0.0355419870263406,-0.0
0.03785,-1.8319020022666506,-0.9358225998982509,-0.0,-0.07067494523647416,-0.03558877859520199,-0.0
0.0379,-1.8317624051180952,-0.935805025994782,-0.0,-0.07076653684741212,-0.0356355692859456,-0.0
0.037950000000000005,-1.8316226271818385,-0.9357874290012496,-0.0,-0.07085812147397288,-0.035682359097416655,-0.0
0.038,-1.8314826684716758,-0.9357698089180879,-0.0,-0.0709496991071173,-0.035729148028460916,-0.0
0.03805,-1.8313425290014205,-0.9357521657457316,-0.0,-0.07104126973780729,-0.03577593607792366,-0.0
0.0381,-1.831202208784904,-0.9357344994846163,-0.0,-0.07113283335700504,-0.035822723244650696,-0.0
0.03815,-1.831061707835975,-0.9357168101351776,-0.0,-0.07122438995567362,-0.03586950952748734,-0.0
0.038200000000000005,-1.8309210261685007,-0.9356990976978522,-0.0,-0.07131593952477672,-0.035916294925279306,-0.0
0.03825,-1.8307801637963657,-0.9356813621730768,-0.0,-0.07140748205527876,-0.03596307943687235,-0.0
0.0383,-1.8306391207334725,-0.9356636035612894,-0.0,-0.07149901753814475,-0.036009863061111855,-0.0
0.03835,-1.8304978969937415,-0.9356458218629279,-0.0,-0.07159054596434074,-0.03605664579684373,-0.0
0.038400000000000004,-1.830356492591111,-0.9356280170784312,-0.0,-0.07168206732483312,-0.0361034276429134,-0.0
0.038450000000000005,-1.830214907539537,-0.9356101892082386,-0.0,-0.07177358161058908,-0.03615020859816683,-0.0
0.0385,-1.8300731418529936,-0.9355923382527899,-0.0,-0.07186508881257653,-0.036196988661449485,-0.0
0.03855,-1.8299311955454722,-0.9355744642125257,-0.0,-0.07195658892176407,-0.03624376783160725,-0.0
0.0386,-1.8297890686309826,-0.9355565670878867,-0.0,-0.072048081929121,-0.03629054610748602,-0.0
0.038650000000000004,-1.829646761123552,-0.9355386468793148,-0.0,-0.07213956782561719,-0.036337323487931325,-0.0
0.038700000000000005,-1.8295042730372255,-0.9355207035872521,-0.0,-0.07223104660222361,-0.03638409997178925,-0.0
0.03875,-1.8293616043860663,-0.9355027372121414,-0.0,-0.07232251824991154,-0.036430875557905355,-0.0
0.0388,-1.8292187551841552,-0.9354847477544259,-0.0,-0.07241398275965308,-0.03647765024512564,-0.0
0.03885,-1.8290757254455907,-0.9354667352145494,-0.0,-0.07250544012242105,-0.03652442403229612,-0.0
0.038900000000000004,-1.8289325151844895,-0.9354486995929565,-0.0,-0.07259689032918898,-0.03657119691826242,-0.0
0.03895,-1.8287891244149859,-0.9354306408900921,-0.0,-0.07268833337093095,-0.036617968901870745,-0.0
0.039,-1.8286455531512318,-0.9354125591064018,-0.0,-0.07277976923862214,-0.03666473998196677,-0.0
0.03905,-1.828501801407397,-0.9353944542423317,-0.0,-0.07287119792323811,-0.03671151015739673,-0.0
0.0391,-1.8283578691976696,-0.9353763262983288,-0.0,-0.07296261941575516,-0.03675827942700636,-0.0
0.039150000000000004,-1.8282137565362548,-0.9353581752748401,-0.0,-0.07305403370715038,-0.0368050477896418,-0.0
0.0392,-1.8280694634373762,-0.9353400011723135,-0.0,-0.07314544078840154,-0.03685181524414922,-0.0
0.03925,-1.8279249899152747,-0.9353218039911975,-0.0,-0.0732368406504871,-0.036898581789374406,-0.0
0.0393,-1.82778033598421,-0.9353035837319409,-0.0,-0.07332823328438616,-0.03694534742416372,-0.0
0.03935,-1.8276355016584578,-0.9352853403949937,-0.0,-0.07341961868107885,-0.03699211214736299,-0.0
0.039400000000000004,-1.8274904869523132,-0.9352670739808056,-0.0,-0.0735109968315457,-0.037038875957818615,-0.0
0.03945,-1.8273452918800885,-0.9352487844898275,-0.0,-0.07360236772676804,-0.037085638854376476,-0.0
0.0395,-1.8271999164561141,-0.9352304719225107,-0.0,-0.07369373135772789,-0.03713240083588289,-0.0
0.03955,-1.8270543606947378,-0.935212136279307,-0.0,-0.07378508771540807,-0.03717916190118415,-0.0
0.0396,-1.8269086246103257,-0.9351937775606687,-0.0,-0.0738764367907919,-0.03722592204912624,-0.0
0.039650000000000005,-1.8267627082172606,-0.9351753957670489,-0.0,-0.07396777857486385,-0.03727268127855566,-0.0
0.0397,-1.8266166115299445,-0.9351569908989013,-0.0,-0.07405911305860875,-0.0373194395883184,-0.0
0.03975,-1.8264703345627964,-0.9351385629566797,-0.0,-0.07415044023301223,-0.03736619697726087,-0.0
0.0398,-1.826323877330253,-0.935120111940839,-0.0,-0.07424176008906065,-0.03741295344422952,-0.0
0.039850000000000003,-1.8261772398467697,-0.9351016378518345,-0.0,-0.07433307261774111,-0.03745970898807042,-0.0
0.039900000000000005,-1.8260304221268182,-0.9350831406901219,-0.0,-0.07442437781004142,-0.03750646360763018,-0.0
0.03995,-1.82588342418489,-0.9350646204561576,-0.0,-0.07451567565695001,-0.03755321730175492,-0.0
0.04,-1.825736246035492,-0.9350460771503987,-0.0,-0.07460696614945637,-0.037599970069291284,-0.0
0.04005,-1.8255888876931505,-0.9350275107733026,-0.0,-0.07469824927855037,-0.03764672190908545,-0.0
0.040100000000000004,-1.8254413491724095,-0.9350089213253274,-0.0,-0.07478952503522275,-0.03769347281998399,-0.0
0.040150000000000005,-1.82529363048783,-0.9349903088069319,-0.0,-0.07488079341046493,-0.037740222800833494,-0.0
0.0402,-1.8251457316539919,-0.9349716732185753,-0.0,-0.07497205439526909,-0.03778697185048021,-0.0
0.04025,-1.8249976526854916,-0.9349530145607172,-0.0,-0.07506330798062799,-0.037833719967770886,-0.0
0.0403,-1.8248493935969439,-0.9349343328338185,-0.0,-0.07515455415753555,-0.037880467151551814,-0.0
0.040350000000000004,-1.8247009544029817,-0.9349156280383396,-0.0,-0.07524579291698598,-0.03792721340066981,-0.0
0.040400000000000005,-1.8245523351182555,-0.9348969001747424,-0.0,-0.07533702424997436,-0.037973958713971204,-0.0
0.04045,-1.8244035357574333,-0.9348781492434888,-0.0,-0.07542824814749657,-0.03802070309030271,-0.0
0.0405,-1.8242545563352006,-0.9348593752450415,-0.0,-0.07551946460054913,-0.038067446528511115,-0.0
0.04055,-1.8241053968662617,-0.9348405781798637,-0.0,-0.07561067360012923,-0.03811418902744279,-0.0
0.040600000000000004,-1.8239560573653377,-0.9348217580484192,-0.0,-0.07570187513723514,-0.038160930585944684,-0.0
0.04065,-1.8238065378471677,-0.9348029148511725,-0.0,-0.07579306920286552,-0.038207671202863225,-0.0
0.0407,-1.8236568383265088,-0.9347840485885883,-0.0,-0.07588425578801986,-0.038254410877045404,-0.0
0.04075,-1.8235069588181358,-0.9347651592611324,-0.0,-0.07597543488369841,-0.038301149607337694,-0.0
0.0408,-1.8233568993368414,-0.9347462468692707,-0.0,-0.07606660648090215,-0.038347887392586995,-0.0
0.040850000000000004,-1.8232066598974355,-0.9347273114134698,-0.0,-0.07615777057063283,-0.03839462423164024,-0.0
0.0409,-1.8230562405147468,-0.9347083528941971,-0.0,-0.07624892714389275,-0.038441360123343975,-0.0
0.04095,-1.8229056412036202,-0.9346893713119201,-0.0,-0.07634007619168541,-0.0384880950665453,-0.0
0.041,-1.8227548619789198,-0.9346703666671075,-0.0,-0.0764312177050146,-0.03853482906009081,-0.0
0.04105,-1.8226039028555268,-0.9346513389602278,-0.0,-0.07652235167488503,-0.03858156210282766,-0.0
0.041100000000000005,-1.82245276384834,-0.9346322881917509,-0.0,-0.07661347809230214,-0.03862829419360249,-0.0
0.04115,-1.822301444972277,-0.9346132143621466,-0.0,-0.07670459694827209,-0.03867502533126237,-0.0
0.0412,-1.8221499462422714,-0.9345941174718857,-0.0,-0.07679570823380184,-0.038721755514654385,-0.0
0.04125,-1.8219982676732764,-0.9345749975214394,-0.0,-0.07688681193989891,-0.038768484742625245,-0.0
0.0413,-1.8218464092802615,-0.9345558545112791,-0.0,-0.07697790805757201,-0.038815213014022215,-0.0
0.041350000000000005,-1.8216943710782147,-0.9345366884418775,-0.0,-0.07706899657783016,-0.03886194032769207,-0.0
0.0414,-1.8215421530821414,-0.9345174993137075,-0.0,-0.0771600774916833,-0.03890866668248198,-0.0
0.04145,-1.821389755307065,-0.9344982871272425,-0.0,-0.0772511507901421,-0.03895539207723916,-0.0
0.0415,-1.8212371777680272,-0.9344790518829564,-0.0,-0.07734221646421785,-0.03900211651081043,-0.0
0.041550000000000004,-1.8210844204800858,-0.934459793581324,-0.0,-0.07743327450492299,-0.039048839982043185,-0.0
0.041600000000000005,-1.820931483458318,-0.9344405122228205,-0.0,-0.07752432490327034,-0.039095562489784304,-0.0
0.04165,-1.8207783667178172,-0.9344212078079215,-0.0,-0.07761536765027355,-0.03914228403288108,-0.0
0.0417,-1.8206250702736966,-0.9344018803371034,-0.0,-0.0777064027369471,-0.03918900461018085,-0.0
0.04175,-1.8204715941410854,-0.9343825298108431,-0.0,-0.07779743015430617,-0.03923572422053055,-0.0
0.041800000000000004,-1.820317938335131,-0.9343631562296181,-0.0,-0.0778884498933667,-0.039282442862777704,-0.0
0.041850000000000005,-1.820164102870999,-0.9343437595939061,-0.0,-0.07797946194514528,-0.0393291605357693,-0.0
0.0419,-1.8200100877638716,-0.9343243399041861,-0.0,-0.07807046630065964,-0.03937587723835288,-0.0
0.04195,-1.8198558930289501,-0.9343048971609371,-0.0,-0.07816146295092792,-0.03942259296937551,-0.0
0.042,-1.819701518681453,-0.9342854313646388,-0.0,-0.07825245188696904,-0.03946930772768465,-0.0
0.042050000000000004,-1.819546964736616,-0.9342659425157717,-0.0,-0.07834343309980281,-0.03951602151212779,-0.0
0.042100000000000005,-1.8193922312096933,-0.9342464306148163,-0.0,-0.0784344065804497,-0.039562734321552044,-0.0
0.04215,-1.819237318115956,-0.9342268956622543,-0.0,-0.07852537231993102,-0.03960944615480509,-0.0
0.0422,-1.8190822254706944,-0.9342073376585676,-0.0,-0.07861633030926869,-0.039656157010734105,-0.0
0.04225,-1.8189269532892143,-0.9341877566042388,-0.0,-0.07870728053948574,-0.0397028668881868,-0.0
0.042300000000000004,-1.8187715015868413,-0.9341681524997513,-0.0,-0.07879822300160565,-0.039749575786010384,-0.0
0.04235,-1.8186158703789175,-0.9341485253455883,-0.0,-0.07888915768665271,-0.03979628370305249,-0.0
0.0424,-1.8184600596808034,-0.9341288751422345,-0.0,-0.07898008458565207,-0.039842990638160804,-0.0
0.04245,-1.8183040695078765,-0.9341092018901744,-0.0,-0.07907100368962959,-0.0398896965901826,-0.0
0.0425,-1.8181478998755327,-0.9340895055898939,-0.0,-0.0791619149896119,-0.039936401557965705,-0.0
0.042550000000000004,-1.8179915507991853,-0.9340697862418785,-0.0,-0.07925281847662631,-0.03998310554035747,-0.0
0.0426,-1.8178350222942652,-0.9340500438466152,-0.0,-0.07934371414170126,-0.040029808536205795,-0.0
0.04265,-1.8176783143762212,-0.9340302784045907,-0.0,-0.07943460197586556,-0.04007651054435805,-0.0
0.0427,-1.8175214270605196,-0.9340104899162929,-0.0,-0.07952548197014896,-0.04012321156366203,-0.0
0.04275,-1.8173643603626448,-0.9339906783822101,-0.0,-0.07961635411558195,-0.0401699115929656,-0.0
0.042800000000000005,-1.8172071142980988,-0.933970843802831,-0.0,-0.07970721840319568,-0.040216610631116194,-0.0
0.04285,-1.8170496888824006,-0.9339509861786451,-0.0,-0.07979807482402249,-0.040263308676961825,-0.0
0.0429,-1.816892084131088,-0.9339311055101424,-0.0,-0.07988892336909505,-0.04031000572935001,-0.0
0.04295,-1.8167343000597158,-0.9339112017978133,-0.0,-0.07997976402944697,-0.040356701787128794,-0.0
0.043000000000000003,-1.8165763366838565,-0.933891275042149,-0.0,-0.08007059679611266,-0.040403396849145755,-0.0
0.043050000000000005,-1.8164181940191009,-0.9338713252436412,-0.0,-0.08016142166012726,-0.04045009091424885,-0.0
0.0431,-1.8162598720810563,-0.933851352402782,-0.0,-0.0802522386125267,-0.040496783981286096,-0.0
0.04315,-1.8161013708853495,-0.9338313565200643,-0.0,-0.08034304764434763,-0.04054347604910512,-0.0
0.0432,-1.815942690447623,-0.9338113375959816,-0.0,-0.0804338487466278,-0.0405901671165541,-0.0
0.043250000000000004,-1.8157838307835383,-0.9337912956310276,-0.0,-0.08052464191040533,-0.04063685718248072,-0.0
0.043300000000000005,-1.815624791908774,-0.933771230625697,-0.0,-0.08061542712671933,-0.04068354624573322,-0.0
0.04335,-1.815465573839027,-0.9337511425804849,-0.0,-0.08070620438660966,-0.04073023430515932,-0.0
0.0434,-1.8153061765900114,-0.9337310314958869,-0.0,-0.08079697368111696,-0.040776921359607164,-0.0
0.04345,-1.8151466001774588,-0.9337108973723991,-0.0,-0.08088773500128264,-0.04082360740792494,-0.0
0.043500000000000004,-1.8149868446171191,-0.9336907402105183,-0.0,-0.08097848833814883,-0.04087029244896045,-0.0
0.043550000000000005,-1.8148269099247594,-0.9336705600107421,-0.0,-0.08106923368275873,-0.040916976481562055,-0.0
0.0436,-1.8146667961161642,-0.9336503567735682,-0.0,-0.08115997102615606,-0.040963659504577594,-0.0
0.04365,-1.8145065032071368,-0.9336301304994953,-0.0,-0.08125070035938539,-0.04101034151685535,-0.0
0.0437,-1.8143460312134974,-0.9336098811890222,-0.0,-0.08134142167349208,-0.04105702251724362,-0.0
0.043750000000000004,-1.8141853801510834,-0.9335896088426487,-0.0,-0.08143213495952217,-0.04110370250459034,-0.0
0.0438,-1.8140245500357508,-0.933569313460875,-0.0,-0.08152284020852288,-0.04115038147774398,-0.0
0.04385,-1.813863540883373,-0.9335489950442019,-0.0,-0.08161353741154184,-0.04119705943555253,-0.0
0.0439,-1.8137023527098406,-0.9335286535931305,-0.0,-0.08170422655962757,-0.04124373637686438,-0.0
0.04395,-1.8135409855310625,-0.933508289108163,-0.0,-0.08179490764382943,-0.04129041230052797,-0.0
0.044000000000000004,-1.813379439362965,-0.9334879015898018,-0.0,-0.08188558065519756,-0.04133708720539133,-0.0
0.04405,-1.813217714221492,-0.9334674910385496,-0.0,-0.08197624558478288,-0.04138376109030309,-0.0
0.0441,-1.8130558101226053,-0.9334470574549106,-0.0,-0.08206690242363701,-0.041430433954111334,-0.0
0.04415,-1.8128937270822838,-0.9334266008393886,-0.0,-0.08215755116281269,-0.041477105795664736,-0.0
0.0442,-1.8127314651165247,-0.9334061211924883,-0.0,-0.08224819179336318,-0.04152377661381144,-0.0
0.044250000000000005,-1.8125690242413428,-0.9333856185147154,-0.0,-0.08233882430634258,-0.04157044640740002,-0.0
0.0443,-1.81240640447277,-0.9333650928065753,-0.0,-0.0824294486928058,-0.041617115175279086,-0.0
0.04435,-1.8122436058268565,-0.9333445440685748,-0.0,-0.0825200649438086,-0.04166378291629687,-0.0
0.0444,-1.8120806283196695,-0.9333239723012208,-0.0,-0.0826106730504075,-0.04171044962930215,-0.0
0.04445,-1.8119174719672952,-0.9333033775050209,-0.0,-0.08270127300365972,-0.0417571153131432,-0.0
0.044500000000000005,-1.8117541367858354,-0.9332827596804831,-0.0,-0.08279186479462365,-0.04180377996666886,-0.0
0.04455,-1.811590622791411,-0.9332621188281164,-0.0,-0.08288244841435814,-0.04185044358872747,-0.0
0.0446,-1.8114269300001604,-0.9332414549484299,-0.0,-0.0829730238539229,-0.041897106178167776,-0.0
0.04465,-1.811263058428239,-0.9332207680419335,-0.0,-0.08306359110437851,-0.04194376773383856,-0.0
0.044700000000000004,-1.8110990080918208,-0.9332000581091378,-0.0,-0.08315415015678634,-0.04199042825458822,-0.0
0.044750000000000005,-1.8109347790070962,-0.9331793251505535,-0.0,-0.0832447010022086,-0.042037087739265726,-0.0
0.0448,-1.8107703711902752,-0.9331585691666923,-0.0,-0.0833352436317081,-0.042083746186719534,-0.0
0.04485,-1.810605784657583,-0.9331377901580664,-0.0,-0.08342577803634893,-0.04213040359579867,-0.0
0.0449,-1.8104410194252638,-0.9331169881251884,-0.0,-0.08351630420719557,-0.04217705996535163,-0.0
0.044950000000000004,-1.81027607550958,-0.9330961630685717,-0.0,-0.08360682213531345,-0.042223715294227346,-0.0
0.045000000000000005,-1.8101109529268102,-0.9330753149887299,-0.0,-0.08369733181176878,-0.04227036958127478,-0.0
0.04505,-1.8099456516932517,-0.9330544438861778,-0.0,-0.08378783322762852,-0.04231702282534253,-0.0
0.0451,-1.809780171825219,-0.9330335497614298,-0.0,-0.08387832637396078,-0.04236367502527972,-0.0
0.04515,-1.809614513339044,-0.9330126326150021,-0.0,-0.08396881124183413,-0.042410326179934996,-0.0
0.045200000000000004,-1.809448676251077,-0.9329916924474103,-0.0,-0.08405928782231802,-0.042456976288157554,-0.0
0.045250000000000005,-1.8092826605776853,-0.9329707292591713,-0.0,-0.08414975610648284,-0.04250362534879608,-0.0
0.0453,-1.809116466335254,-0.9329497430508024,-0.0,-0.08424021608539968,-0.04255027336069969,-0.0
0.04535,-1.8089500935401859,-0.9329287338228213,-0.0,-0.08433066775014053,-0.04259692032271752,-0.0
0.0454,-1.8087835422089011,-0.9329077015757463,-0.0,-0.08442111109177801,-0.04264356623369834,-0.0
0.045450000000000004,-1.8086168123578377,-0.9328866463100964,-0.0,-0.084511546101386,-0.04269021109249147,-0.0
0.0455,-1.8084499040034512,-0.9328655680263914,-0.0,-0.08460197277003878,-0.042736854897945736,-0.0
0.04555,-1.8082828171622147,-0.932844466725151,-0.0,-0.08469239108881162,-0.042783497648910374,-0.0
0.0456,-1.8081155518506193,-0.932823342406896,-0.0,-0.08478280104878054,-0.042830139344234665,-0.0
0.04565,-1.8079481080851734,-0.9328021950721477,-0.0,-0.08487320264102248,-0.042876779982767475,-0.0
0.045700000000000005,-1.8077804858824027,-0.9327810247214278,-0.0,-0.08496359585661513,-0.042923419563358295,-0.0
0.04575,-1.8076126852588514,-0.9327598313552588,-0.0,-0.08505398068663694,-0.04297005808485605,-0.0
0.0458,-1.8074447062310803,-0.9327386149741632,-0.0,-0.08514435712216753,-0.043016695546110255,-0.0
0.04585,-1.8072765488156683,-0.9327173755786651,-0.0,-0.08523472515428697,-0.04306333194596992,-0.0
0.0459,-1.807108213029212,-0.9326961131692881,-0.0,-0.08532508477407628,-0.04310996728328445,-0.0
0.045950000000000005,-1.8069396988883253,-0.932674827746557,-0.0,-0.08541543597261736,-0.043156601556903304,-0.0
0.046,-1.8067710064096403,-0.932653519310997,-0.0,-0.08550577874099273,-0.04320323476567558,-0.0
0.04605,-1.8066021356098059,-0.932632187863134,-0.0,-0.08559611307028622,-0.04324986690845089,-0.0
0.0461,-1.8064330865054892,-0.9326108334034939,-0.0,-0.08568643895158201,-0.043296497984078385,-0.0
0.046150000000000004,-1.8062638591133742,-0.9325894559326041,-0.0,-0.08577675637596534,-0.043343127991407604,-0.0
0.046200000000000005,-1.8060944534501635,-0.9325680554509918,-0.0,-0.08586706533452221,-0.04338975692928815,-0.0
0.04625,-1.8059248695325767,-0.9325466319591851,-0.0,-0.08595736581833949,-0.04343638479656923,-0.0
0.0463,-1.8057551073773508,-0.9325251854577125,-0.0,-0.08604765781850487,-0.0434830115921006,-0.0
0.04635,-1.805585167001241,-0.9325037159471034,-0.0,-0.08613794132610679,-0.043529637314731535,-0.0
0.046400000000000004,-1.8054150484210194,-0.9324822234278872,-0.0,-0.08622821633223483,-0.04357626196331185,-0.0
0.046450000000000005,-1.8052447516534762,-0.9324607079005945,-0.0,-0.08631848282797913,-0.04362288553669087,-0.0
0.0465,-1.805074276715419,-0.9324391693657562,-0.0,-0.08640874080443073,-0.043669508033718336,-0.0
0.04655,-1.8049036236236733,-0.9324176078239035,-0.0,-0.08649899025268148,-0.04371612945324402,-0.0
0.0466,-1.804732792395081,-0.9323960232755687,-0.0,-0.08658923116382418,-0.04376274979411731,-0.0
0.046650000000000004,-1.8045617830465037,-0.9323744157212839,-0.0,-0.08667946352895238,-0.04380936905518817,-0.0
0.046700000000000005,-1.8043905955948185,-0.9323527851615828,-0.0,-0.08676968733916036,-0.04385598723530604,-0.0
0.04675,-1.804219230056921,-0.9323311315969988,-0.0,-0.08685990258554367,-0.043902604333320924,-0.0
0.0468,-1.8040476864497244,-0.9323094550280662,-0.0,-0.08695010925919827,-0.043949220348082345,-0.0
0.04685,-1.8038759647901594,-0.93228775545532,-0.0,-0.08704030735122115,-0.04399583527844022,-0.0
0.046900000000000004,-1.8037040650951743,-0.9322660328792954,-0.0,-0.08713049685271007,-0.04404244912324451,-0.0
0.046950000000000006,-1.803531987381735,-0.9322442873005286,-0.0,-0.08722067775476373,-0.044089061881344795,-0.0
0.047,-1.8033597316668248,-0.932222518719556,-0.0,-0.08731085004848146,-0.04413567355159122,-0.0
0.04705,-1.8031872979674446,-0.9322007271369147,-0.0,-0.08740101372496391,-0.04418228413283341,-0.0
0.0471,-1.8030146863006127,-0.9321789125531424,-0.0,-0.08749116877531211,-0.04422889362392158,-0.0
0.047150000000000004,-1.8028418966833655,-0.9321570749687776,-0.0,-0.08758131519062816,-0.0442755020237054,-0.0
0.0472,-1.802668929132757,-0.932135214384359,-0.0,-0.08767145296201495,-0.04432210933103501,-0.0
0.04725,-1.8024957836658573,-0.9321133308004257,-0.0,-0.08776158208057622,-0.04436871554476054,-0.0
0.0473,-1.8023224602997565,-0.9320914242175179,-0.0,-0.08785170253741646,-0.04441532066373175,-0.0
0.04735,-1.8021489590515598,-0.932069494636176,-0.0,-0.0879418143236414,-0.044461924686799,-0.0
0.047400000000000005,-1.801975279938392,-0.9320475420569413,-0.0,-0.08803191743035724,-0.04450852761281209,-0.0
0.04745,-1.8018014229773938,-0.9320255664803554,-0.0,-0.08812201184867115,-0.04455512944062143,-0.0
0.0475,-1.8016273881857245,-0.9320035679069604,-0.0,-0.08821209756969116,-0.04460173016907688,-0.0
0.04755,-1.801453175580561,-0.9319815463372991,-0.0,-0.0883021745845262,-0.04464832979702874,-0.0
0.0476,-1.8012787851790968,-0.931959501771915,-0.0,-0.088392242884286,-0.04469492832332736,-0.0
0.047650000000000005,-1.801104216998544,-0.9319374342113519,-0.0,-0.08848230246008104,-0.0447415257468227,-0.0
0.0477,-1.8009294710561317,-0.9319153436561542,-0.0,-0.08857235330302307,-0.044788122066365274,-0.0
0.04775,-1.800754547369106,-0.9318932301068674,-0.0,-0.08866239540422428,-0.044834717280805104,-0.0
0.0478,-1.8005794459547322,-0.9318710935640367,-0.0,-0.0887524287547979,-0.04488131138899262,-0.0
0.047850000000000004,-1.8004041668302913,-0.9318489340282083,-0.0,-0.08884245334585796,-0.04492790438977831,-0.0
0.047900000000000005,-1.8002287100130832,-0.9318267514999293,-0.0,-0.0889324691685194,-0.044974496282012257,-0.0
0.04795,-1.8000530755204245,-0.9318045459797467,-0.0,-0.08902247621389793,-0.04502108706454513,-0.0
0.048,-1.7998772633696496,-0.9317823174682087,-0.0,-0.08911247447311041,-0.04506767673622706,-0.0
0.04805,-1.7997012735781106,-0.9317600659658635,-0.0,-0.08920246393727424,-0.045114265295908784,-0.0
0.048100000000000004,-1.799525106163177,-0.9317377914732601,-0.0,-0.08929244459750786,-0.0451608527424405,-0.0
0.048150000000000005,-1.7993487611422356,-0.9317154939909484,-0.0,-0.0893824164449305,-0.04520743907467283,-0.0
0.0482,-1.7991722385326914,-0.9316931735194782,-0.0,-0.0894723794706623,-0.04525402429145646,-0.0
0.04825,-1.7989955383519662,-0.9316708300594007,-0.0,-0.08956233366582418,-0.04530060839164166,-0.0
0.0483,-1.7988186606174996,-0.9316484636112666,-0.0,-0.0896522790215382,-0.04534719137407929,-0.0
0.048350000000000004,-1.7986416053467487,-0.9316260741756284,-0.0,-0.08974221552892703,-0.04539377323761968,-0.0
0.048400000000000006,-1.798464372557188,-0.931603661753038,-0.0,-0.08983214317911425,-0.045440353981113756,-0.0
0.04845,-1.7982869622663105,-0.9315812263440488,-0.0,-0.08992206196322441,-0.045486933603411904,-0.0
0.0485,-1.7981093744916248,-0.9315587679492143,-0.0,-0.09001197187238287,-0.04553351210336495,-0.0
0.04855,-1.7979316092506588,-0.9315362865690885,-0.0,-0.09010187289771585,-0.04558008947982376,-0.0
0.048600000000000004,-1.797753666560957,-0.9315137822042262,-0.0,-0.09019176503035037,-0.0456266657316388,-0.0
0.048650000000000006,-1.7975755464400816,-0.9314912548551825,-0.0,-0.09028164826141467,-0.045673240857661127,-0.0
0.0487,-1.7973972489056123,-0.9314687045225134,-0.0,-0.09037152258203753,-0.04571981485674128,-0.0
0.04875,-1.7972187739751466,-0.9314461312067753,-0.0,-0.09046138798334868,-0.045766387727730215,-0.0
0.0488,-1.7970401216662992,-0.9314235349085251,-0.0,-0.09055124445647876,-0.045812959469478935,-0.0
0.048850000000000005,-1.7968612919967022,-0.9314009156283206,-0.0,-0.09064109199255933,-0.04585953008083806,-0.0
0.0489,-1.7966822849840056,-0.9313782733667195,-0.0,-0.09073093058272265,-0.04590609956065876,-0.0
0.04895,-1.7965031006458767,-0.9313556081242808,-0.0,-0.09082076021810222,-0.04595266790779174,-0.0
0.049,-1.796323739,-0.9313329199015635,-0.0,-0.09091058088983213,-0.0459992351210882,-0.0
0.04905,-1.796144200064078,-0.9313102086991277,-0.0,-0.09100039258904742,-0.04604580119939892,-0.0
0.049100000000000005,-1.7959644838558304,-0.9312874745175336,-0.0,-0.09109019530688404,-0.046092366141575025,-0.0
0.04915,-1.7957845903929943,-0.9312647173573421,-0.0,-0.09117998903447881,-0.04613892994646771,-0.0
0.0492,-1.7956045196933255,-0.9312419372191147,-0.0,-0.09126977376296931,-0.046185492612927814,-0.0
0.04925,-1.7954242717745945,-0.9312191341034135,-0.0,-0.09135954948349441,-0.04623205413980669,-0.0
0.049300000000000004,-1.7952438466545926,-0.9311963080108013,-0.0,-0.09144931618719346,-0.046278614525955226,-0.0
0.049350000000000005,-1.795063244351126,-0.9311734589418412,-0.0,-0.09153907386520684,-0.04632517377022485,-0.0
0.0494,-1.7948824648820203,-0.9311505868970971,-0.0,-0.09162882250867585,-0.0463717318714665,-0.0
0.04945,-1.7947015082651172,-0.9311276918771331,-0.0,-0.09171856210874263,-0.04641828882853153,-0.0
0.0495,-1.7945203745182763,-0.931104773882514,-0.0,-0.09180829265655023,-0.04646484464027132,-0.0
0.049550000000000004,-1.7943390636593755,-0.9310818329138058,-0.0,-0.0918980141432425,-0.046511399305536896,-0.0
0.049600000000000005,-1.7941575757063084,-0.9310588689715742,-0.0,-0.09198772655996451,-0.04655795282317983,-0.0
0.04965,-1.793975910676988,-0.9310358820563859,-0.0,-0.09207742989786188,-0.0466045051920512,-0.0
0.0497,-1.7937940685893434,-0.9310128721688079,-0.0,-0.09216712414808129,-0.04665105641100262,-0.0
0.04975,-1.7936120494613221,-0.9309898393094083,-0.0,-0.0922568093017702,-0.04669760647888523,-0.0
0.049800000000000004,-1.7934298533108883,-0.9309667834787551,-0.0,-0.09234648535007707,-0.04674415539455059,-0.0
0.049850000000000005,-1.7932474801560243,-0.9309437046774173,-0.0,-0.09243615228415125,-0.046790703156850286,-0.0
0.0499,-1.7930649300147299,-0.9309206029059643,-0.0,-0.09252581009514281,-0.046837249764635526,-0.0
0.04995,-1.7928822029050215,-0.9308974781649662,-0.0,-0.09261545877420317,-0.046883795216758076,-0.0
0.05,-1.7926992988449337,-0.9308743304549935,-0.0,-0.09270509831248418,-0.046930339512069215,-0.0
0.050050000000000004,-1.7925162178525182,-0.9308511597766174,-0.0,-0.09279472870113882,-0.046976882649420654,-0.0
0.050100000000000006,-1.7923329599458449,-0.9308279661304095,-0.0,-0.0928843499313209,-0.04702342462766411,-0.0
0.05015,-1.7921495251430006,-0.9308047495169423,-0.0,-0.09297396199418505,-0.04706996544565093,-0.0
0.0502,-1.7919659134620889,-0.9307815099367884,-0.0,-0.09306356488088716,-0.047116505102233044,-0.0
0.05025,-1.791782124921232,-0.9307582473905214,-0.0,-0.09315315858258363,-0.04716304359626186,-0.0
0.050300000000000004,-1.7915981595385695,-0.9307349618787152,-0.0,-0.09324274309043196,-0.047209580926589355,-0.0
0.050350000000000006,-1.7914140173322572,-0.9307116534019443,-0.0,-0.09333231839559046,-0.04725611709206701,-0.0
0.0504,-1.7912296983204699,-0.930688321960784,-0.0,-0.09342188448921845,-0.0473026520915467,-0.0
0.05045,-1.7910452025213985,-0.9306649675558097,-0.0,-0.09351144136247609,-0.04734918592388037,-0.0
0.0505,-1.7908605299532532,-0.9306415901875978,-0.0,-0.09360098900652436,-0.047395718587919584,-0.0
0.050550000000000005,-1.7906756806342592,-0.9306181898567253,-0.0,-0.0936905274125255,-0.04744225008251644,-0.0
0.0506,-1.7904906545826609,-0.9305947665637693,-0.0,-0.09378005657164228,-0.047488780406522574,-0.0
0.05065,-1.7903054518167196,-0.9305713203093078,-0.0,-0.09386957647503855,-0.04753530955879002,-0.0
0.0507,-1.7901200723547142,-0.9305478510939192,-0.0,-0.09395908711387906,-0.04758183753817084,-0.0
0.05075,-1.7899345162149407,-0.9305243589181831,-0.0,-0.09404858847932944,-0.047628364343516756,-0.0
0.050800000000000005,-1.7897487834157129,-0.9305008437826785,-0.0,-0.09413808056255626,-0.04767488997368002,-0.0
0.05085,-1.789562873975362,-0.9304773056879859,-0.0,-0.09422756335472691,-0.0477214144275124,-0.0
0.0509,-1.789376787912236,-0.9304537446346861,-0.0,-0.09431703684701001,-0.04776793770386619,-0.0
0.05095,-1.7891905252447016,-0.9304301606233606,-0.0,-0.09440650103057475,-0.04781445980159325,-0.0
0.051000000000000004,-1.7890040859911416,-0.9304065536545909,-0.0,-0.09449595589659142,-0.047860980719545795,-0.0
0.051050000000000005,-1.788817470169957,-0.9303829237289597,-0.0,-0.09458540143623113,-0.04790750045657611,-0.0
0.0511,-1.7886306777995666,-0.9303592708470502,-0.0,-0.09467483764066584,-0.04795401901153611,-0.0
0.05115,-1.788443708898405,-0.9303355950094457,-0.0,-0.09476426450106881,-0.048000536383278246,-0.0
0.0512,-1.7882565634849261,-0.9303118962167307,-0.0,-0.09485368200861384,-0.04804705257065449,-0.0
0.051250000000000004,-1.7880692415776,-0.9302881744694896,-0.0,-0.09494309015447577,-0.048093567572517364,-0.0
0.051300000000000005,-1.787881743194915,-0.9302644297683081,-0.0,-0.09503248892983039,-0.04814008138771889,-0.0
0.05135,-1.7876940683553761,-0.9302406621137719,-0.0,-0.09512187832585436,-0.04818659401511153,-0.0
0.0514,-1.7875062170775062,-0.9302168715064673,-0.0,-0.09521125833372532,-0.04823310545354774,-0.0
0.05145,-1.7873181893798455,-0.9301930579469814,-0.0,-0.0953006289446217,-0.048279615701879657,-0.0
0.051500000000000004,-1.7871299852809517,-0.9301692214359016,-0.0,-0.0953899901497232,-0.048326124758959935,-0.0
0.051550000000000006,-1.7869416047993993,-0.9301453619738166,-0.0,-0.09547934194021011,-0.048372632623640756,-0.0
0.0516,-1.7867530479537814,-0.9301214795613145,-0.0,-0.09556868430726378,-0.04841913929477483,-0.0
0.05165,-1.7865643147627075,-0.930097574198985,-0.0,-0.09565801724206645,-0.0484656447712144,-0.0
0.0517,-1.7863754052448046,-0.9300736458874178,-0.0,-0.09574734073580131,-0.048512149051812135,-0.0
0.051750000000000004,-1.7861863194187177,-0.9300496946272031,-0.0,-0.09583665477965249,-0.04855865213542069,-0.0
0.051800000000000006,-1.785997057303109,-0.9300257204189322,-0.0,-0.09592595936480494,-0.048605154020892403,-0.0
0.05185,-1.785807618916657,-0.9300017232631964,-0.0,-0.09601525448244487,-0.04865165470708014,-0.0
0.0519,-1.7856180042780594,-0.9299777031605879,-0.0,-0.0961045401237591,-0.04869815419283629,-0.0
0.05195,-1.78542821340603,-0.9299536601116993,-0.0,-0.09619381627993549,-0.04874465247701379,-0.0
0.052000000000000005,-1.7852382463193004,-0.9299295941171241,-0.0,-0.09628308294216284,-0.04879114955846506,-0.0
0.05205,-1.7850481030366199,-0.9299055051774557,-0.0,-0.09637234010163086,-0.048837645436042965,-0.0
0.0521,-1.7848577835767545,-0.9298813932932888,-0.0,-0.09646158774953024,-0.04888414010860042,-0.0
0.05215,-1.7846672879584886,-0.9298572584652182,-0.0,-0.09655082587705248,-0.04893063357498992,-0.0
0.0522,-1.7844766162006225,-0.9298331006938395,-0.0,-0.09664005447539036,-0.048977125834064564,-0.0
0.052250000000000005,-1.7842857683219755,-0.9298089199797486,-0.0,-0.09672927353573724,-0.04902361688467695,-0.0
0.0523,-1.784094744341383,-0.9297847163235422,-0.0,-0.09681848304928757,-0.04907010672568007,-0.0
0.05235,-1.7839035442776987,-0.9297604897258176,-0.0,-0.09690768300723669,-0.04911659535592697,-0.0
0.0524,-1.7837121681497934,-0.9297362401871725,-0.0,-0.09699687340078085,-0.04916308277427032,-0.0
0.052450000000000004,-1.7835206159765544,-0.9297119677082051,-0.0,-0.0970860542211175,-0.049209568979563356,-0.0
0.052500000000000005,-1.783328887776888,-0.9296876722895145,-0.0,-0.09717522545944475,-0.049256053970658825,-0.0
0.05255,-1.7831369835697164,-0.9296633539317001,-0.0,-0.09726438710696177,-0.049302537746409886,-0.0
0.0526,-1.78294490337398,-0.9296390126353619,-0.0,-0.09735353915486862,-0.04934902030566971,-0.0
0.05265,-1.7827526472086366,-0.9296146484011005,-0.0,-0.09744268159436638,-0.049395501647291146,-0.0
0.052700000000000004,-1.7825602150926607,-0.9295902612295172,-0.0,-0.09753181441665702,-0.04944198177012755,-0.0
0.052750000000000005,-1.7823676070450454,-0.9295658511212135,-0.0,-0.09762093761294335,-0.04948846067303184,-0.0
0.0528,-1.7821748230847991,-0.9295414180767919,-0.0,-0.09771005117442956,-0.04953493835485742,-0.0
0.05285,-1.7819818632309496,-0.9295169620968551,-0.0,-0.09779915509232033,-0.04958141481445728,-0.0
0.0529,-1.7817887275025415,-0.9294924831820066,-0.0,-0.09788824935782145,-0.049627890050684756,-0.0
0.052950000000000004,-1.7815954159186356,-0.9294679813328505,-0.0,-0.09797733396213969,-0.049674364062393256,-0.0
0.053000000000000005,-1.7814019284983118,-0.929443456549991,-0.0,-0.09806640889648276,-0.04972083684843583,-0.0
0.05305,-1.7812082652606664,-0.9294189088340337,-0.0,-0.09815547415205927,-0.04976730840766606,-0.0
0.0531,-1.7810144262248135,-0.929394338185584,-0.0,-0.09824452972007876,-0.049813778738937046,-0.0
0.05315,-1.7808204114098831,-0.9293697446052482,-0.0,-0.09833357559175203,-0.04986024784110244,-0.0
0.053200000000000004,-1.780626220835025,-0.9293451280936331,-0.0,-0.09842261175829045,-0.0499067157130154,-0.0
0.053250000000000006,-1.7804318545194042,-0.9293204886513463,-0.0,-0.09851163821090655,-0.04995318235352952,-0.0
0.0533,-1.7802373124822042,-0.9292958262789953,-0.0,-0.09860065494081374,-0.049999647761498386,-0.0
0.05335,-1.7800425947426255,-0.9292711409771892,-0.0,-0.09868966193922643,-0.05004611193577528,-0.0
0.0534,-1.7798477013198863,-0.9292464327465367,-0.0,-0.09877865919735986,-0.05009257487521398,-0.0
0.053450000000000004,-1.7796526322332211,-0.9292217015876475,-0.0,-0.0988676467064306,-0.05013903657866782,-0.0
0.053500000000000006,-1.7794573875018829,-0.9291969475011318,-0.0,-0.09895662445765581,-0.05018549704499064,-0.0
0.05355,-1.7792619671451417,-0.9291721704876005,-0.0,-0.09904559244225374,-0.05023195627303583,-0.0
0.0536,-1.7790663711822843,-0.929147370547665,-0.0,-0.0991345506514436,-0.05027841426165718,-0.0
0.05365,-1.7788705996326155,-0.9291225476819369,-0.0,-0.09922349907644556,-0.05032487100970852,-0.0
0.053700000000000005,-1.7786746525154573,-0.929097701891029,-0.0,-0.09931243770848064,-0.05037132651604331,-0.0
0.05375,-1.7784785298501486,-0.9290728331755542,-0.0,-0.09940136653877121,-0.05041778077951557,-0.0
0.0538,-1.7782822316560463,-0.9290479415361262,-0.0,-0.09949028555854023,-0.050464233798978825,-0.0
0.05385,-1.7780857579525238,-0.929023026973359,-0.0,-0.0995791947590117,-0.05051068557328715,-0.0
0.0539,-1.7778891087589725,-0.9289980894878676,-0.0,-0.09966809413141069,-0.050557136101294135,-0.0
0.053950000000000005,-1.777692284094801,-0.9289731290802671,-0.0,-0.09975698366696313,-0.05060358538185379,-0.0
0.054,-1.777495283979435,-0.9289481457511735,-0.0,-0.09984586335689602,-0.05065003341382015,-0.0
0.05405,-1.777298108432318,-0.9289231395012031,-0.0,-0.09993473319243712,-0.05069648019604691,-0.0
0.0541,-1.7771007574729096,-0.9288981103309729,-0.0,-0.10002359316481563,-0.05074292572738829,-0.0
0.054150000000000004,-1.7769032311206885,-0.9288730582411007,-0.0,-0.10011244326526124,-0.05078937000669803,-0.0
0.054200000000000005,-1.7767055293951493,-0.9288479832322044,-0.0,-0.10020128348500484,-0.05083581303283044,-0.0
0.05425,-1.776507652315804,-0.9288228853049029,-0.0,-0.10029011381527823,-0.0508822548046393,-0.0
0.0543,-1.776309599902183,-0.9287977644598152,-0.0,-0.10037893424731421,-0.05092869532097886,-0.0
0.05435,-1.7761113721738329,-0.9287726206975613,-0.0,-0.10046774477234659,-0.05097513458070335,-0.0
0.054400000000000004,-1.7759129691503184,-0.9287474540187617,-0.0,-0.10055654538160992,-0.05102157258266669,-0.0
0.054450000000000005,-1.7757143908512205,-0.9287222644240372,-0.0,-0.10064533606634025,-0.051068009325723314,-0.0
0.0545,-1.7755156372961385,-0.9286970519140093,-0.0,-0.10073411681777415,-0.05111444480872719,-0.0
0.05455,-1.7753167085046884,-0.9286718164893003,-0.0,-0.10082288762714932,-0.0511608790305327,-0.0
0.0546,-1.7751176044965036,-0.9286465581505328,-0.0,-0.10091164848570439,-0.05120731198999424,-0.0
0.054650000000000004,-1.7749183252912353,-0.9286212768983297,-0.0,-0.10100039938467893,-0.05125374368596588,-0.0
0.054700000000000006,-1.774718870908551,-0.9285959727333152,-0.0,-0.1010891403153138,-0.051300174117302214,-0.0
0.05475,-1.7745192413681365,-0.9285706456561135,-0.0,-0.10117787126885053,-0.05134660328285736,-0.0
0.0548,-1.7743194366896944,-0.9285452956673494,-0.0,-0.10126659223653169,-0.05139303118148585,-0.0
0.05485,-1.7741194568929444,-0.9285199227676486,-0.0,-0.10135530320960089,-0.05143945781204227,-0.0
0.054900000000000004,-1.7739193019976238,-0.9284945269576371,-0.0,-0.10144400417930272,-0.0514858831733808,-0.0
0.054950000000000006,-1.7737189720234872,-0.9284691082379414,-0.0,-0.1015326951368827,-0.051532307264356224,-0.0
0.055,-1.7735184669903064,-0.9284436666091889,-0.0,-0.10162137607358733,-0.0515787300838228,-0.0
0.05505,-1.7733177869178702,-0.928418202072007,-0.0,-0.10171004698066433,-0.05162515163063536,-0.0
0.0551,-1.773116931825985,-0.9283927146270242,-0.0,-0.10179870784936215,-0.051671571903648225,-0.0
0.055150000000000005,-1.7729159017344749,-0.9283672042748696,-0.0,-0.10188735867093032,-0.05171799090171616,-0.0
0.055200000000000006,-1.77271469666318,-0.9283416710161722,-0.0,-0.10197599943661932,-0.05176440862369395,-0.0
0.05525,-1.7725133166319589,-0.9283161148515624,-0.0,-0.10206463013768068,-0.05181082506843603,-0.0
0.0553,-1.772311761660687,-0.9282905357816705,-0.0,-0.10215325076536688,-0.051857240234797375,-0.0
0.05535,-1.772110031769257,-0.9282649338071278,-0.0,-0.10224186131093131,-0.051903654121632475,-0.0
0.055400000000000005,-1.7719081269775785,-0.9282393089285661,-0.0,-0.10233046176562872,-0.051950066727796375,-0.0
0.05545,-1.7717060473055792,-0.9282136611466174,-0.0,-0.10241905212071445,-0.05199647805214363,-0.0
0.0555,-1.7715037927732031,-0.9281879904619147,-0.0,-0.10250763236744496,-0.052042888093529215,-0.0
0.05555,-1.7713013634004122,-0.9281622968750912,-0.0,-0.1025962024970778,-0.052089296850808146,-0.0
0.055600000000000004,-1.7710987592071854,-0.9281365803867813,-0.0,-0.10268476250087138,-0.052135704322835055,-0.0
0.055650000000000005,-1.7708959802135191,-0.928110840997619,-0.0,-0.1027733123700852,-0.052182110508465156,-0.0
0.0557,-1.770693026439427,-0.9280850787082399,-0.0,-0.10286185209597964,-0.05222851540655316,-0.0
0.05575,-1.7704898979049388,-0.9280592935192792,-0.0,-0.1029503816698164,-0.052274919015954345,-0.0
0.0558,-1.7702865946301034,-0.9280334854313733,-0.0,-0.10303890108285783,-0.05232132133552346,-0.0
0.055850000000000004,-1.7700831166349855,-0.9280076544451592,-0.0,-0.10312741032636745,-0.05236772236411573,-0.0
0.055900000000000005,-1.7698794639396682,-0.9279818005612739,-0.0,-0.1032159093916097,-0.05241412210058637,-0.0
0.05595,-1.769675636564251,-0.9279559237803556,-0.0,-0.10330439826984998,-0.052460520543790266,-0.0
0.056,-1.7694716345288506,-0.9279300241030425,-0.0,-0.10339287695235505,-0.052506917692582825,-0.0
0.05605,-1.7692674578536012,-0.927904101529974,-0.0,-0.10348134543039224,-0.05255331354581899,-0.0
0.056100000000000004,-1.7690631065586544,-0.9278781560617895,-0.0,-0.10356980369523011,-0.05259970810235425,-0.0
0.056150000000000005,-1.7688585806641788,-0.9278521876991292,-0.0,-0.10365825173813815,-0.05264610136104361,-0.0
0.0562,-1.7686538801903602,-0.9278261964426339,-0.0,-0.1037466895503869,-0.052692493320742495,-0.0
0.05625,-1.768449005157402,-0.9278001822929447,-0.0,-0.10383511712324792,-0.05273888398030634,-0.0
0.0563,-1.7682439555855245,-0.9277741452507038,-0.0,-0.10392353444799358,-0.05278527333859027,-0.0
0.056350000000000004,-1.768038731494965,-0.9277480853165535,-0.0,-0.10401194151589774,-0.052831661394449905,-0.0
0.056400000000000006,-1.7678333329059783,-0.9277220024911368,-0.0,-0.10410033831823481,-0.052878048146740415,-0.0
0.05645,-1.7676277598388368,-0.9276958967750971,-0.0,-0.1041887248462804,-0.0529244335943174,-0.0
0.0565,-1.7674220123138296,-0.9276697681690788,-0.0,-0.10427710109131111,-0.05297081773603645,-0.0
0.05655,-1.767216090351263,-0.9276436166737264,-0.0,-0.10436546704460453,-0.053017200570752834,-0.0
0.056600000000000004,-1.7670099939714607,-0.9276174422896852,-0.0,-0.10445382269743932,-0.053063582097322363,-0.0
0.056650000000000006,-1.7668037231947644,-0.9275912450176013,-0.0,-0.10454216804109498,-0.05310996231460036,-0.0
0.0567,-1.7665972780415309,-0.9275650248581206,-0.0,-0.10463050306685244,-0.053156341221442686,-0.0
0.05675,-1.766390658532136,-0.9275387818118904,-0.0,-0.10471882776599324,-0.05320271881670474,-0.0
0.0568,-1.7661838646869727,-0.9275125158795583,-0.0,-0.1048071421298001,-0.053249095099242326,-0.0
0.056850000000000005,-1.7659768965264502,-0.927486227061772,-0.0,-0.10489544614955672,-0.05329547006791129,-0.0
0.056900000000000006,-1.7657697540709958,-0.9274599153591806,-0.0,-0.10498373981654774,-0.05334184372156711,-0.0
0.05695,-1.7655624373410534,-0.9274335807724329,-0.0,-0.10507202312205914,-0.05338821605906583,-0.0
0.057,-1.7653549463570843,-0.927407223302179,-0.0,-0.10516029605737763,-0.05343458707926299,-0.0
0.057050000000000003,-1.7651472811395672,-0.9273808429490691,-0.0,-0.10524855861379101,-0.05348095678101456,-0.0
0.057100000000000005,-1.7649394417089979,-0.927354439713754,-0.0,-0.1053368107825881,-0.05352732516317655,-0.0
0.05715,-1.764731428085889,-0.9273280135968853,-0.0,-0.10542505255505873,-0.05357369222460459,-0.0
0.0572,-1.764523240290771,-0.9273015645991152,-0.0,-0.10551328392249386,-0.05362005796415491,-0.0
0.05725,-1.7643148783441915,-0.9272750927210961,-0.0,-0.1056015048761852,-0.053666422380683185,-0.0
0.057300000000000004,-1.7641063422667138,-0.927248597963481,-0.0,-0.10568971540742601,-0.05371278547304571,-0.0
0.057350000000000005,-1.7638976320789208,-0.9272220803269241,-0.0,-0.10577791550751008,-0.05375914724009824,-0.0
0.0574,-1.7636887478014105,-0.9271955398120794,-0.0,-0.10586610516773244,-0.05380550768069698,-0.0
0.05745,-1.7634796894547995,-0.9271689764196016,-0.0,-0.1059542843793891,-0.05385186679369818,-0.0
