t,ax,ay,az,vx,vy,vz
0.0,-1.8849555921538759,0.8885765876316732,0.0,3.6739403974420595e-17,0.14142135623730953,0.0
0.0005,-1.8849462902785223,0.8857806615976304,0.0,-0.0009424762457637735,0.14186494591445478,0.0
0.001,-1.8849183847442672,0.8829759932660618,0.0,-0.0018849431896676644,0.14230713544185708,0.0
0.0015,-1.884871875826527,0.8801626103179115,0.0,-0.0028273915299431226,0.14274792045528426,0.0
0.002,-1.884806763984326,0.8773405405201335,0.0,-0.003769811965005777,0.14318729660436622,0.0
0.0025,-1.8847230498602918,0.8745098117254171,0.0,-0.004712195193546139,0.14362525955263777,0.0
0.003,-1.884620734280649,0.8716704518719128,0.0,-0.005654531914622464,0.1440618049775814,0.0
0.0035,-1.8844998182552108,0.8688224889829564,0.0,-0.006596812827751485,0.14449692857066995,0.0
0.004,-1.88436030297737,0.8659659511667913,0.0,-0.007539028633001271,0.14493062603740933,0.0
0.0045000000000000005,-1.8842021898240857,0.8631008666162929,0.0,-0.008481170031081944,0.14536289309738057,0.0
0.005,-1.8840254803558714,0.8602272636086888,0.0,-0.009423227723438397,0.14579372548428232,0.0
0.0055,-1.8838301763167773,0.8573451705052809,0.0,-0.010365192412341665,0.1462231189459728,0.0
0.006,-1.883616279634376,0.8544546157511642,0.0,-0.011307054800980288,0.14665106924451202,0.0
0.006500000000000001,-1.8833837924197419,0.8515556278749473,0.0,-0.012248805593552998,0.14707757215620318,0.0
0.007,-1.883132716967429,0.8486482354884702,0.0,-0.013190435495359412,0.1475026234716348,0.0
0.0075,-1.8828630557554513,0.8457324672865222,0.0,-0.014131935212892813,0.14792621899572192,0.0
0.008,-1.8825748114452554,0.8428083520465579,0.0,-0.015073295453930824,0.14834835454774783,0.0
0.0085,-1.8822679868816974,0.8398759186284144,0.0,-0.016014506927628038,0.14876902596140504,0.0
0.009000000000000001,-1.8819425850930105,0.8369351959740255,0.0,-0.01695556034460733,0.14918822908483642,0.0
0.0095,-1.8815986092907802,0.8339862131071372,0.0,-0.017896446417051123,0.14960595978067648,0.0
0.01,-1.881236062869908,0.8310289991330191,0.0,-0.018837155858794002,0.1500222139260919,0.0
0.0105,-1.8808549494085813,0.8280635832381794,0.0,-0.019777679385413287,0.1504369874128223,0.0
0.011,-1.8804552726682355,0.825089994690076,0.0,-0.02071800771432174,0.15085027614722077,0.0
0.0115,-1.8800370365935193,0.8221082628368275,0.0,-0.021658131564858126,0.1512620760502944,0.0
0.012,-1.8796002453122531,0.8191184171069232,0.0,-0.022598041658379836,0.1516723830577444,0.0
0.0125,-1.8791449031353913,0.8161204870089336,0.0,-0.023537728718353444,0.1520811931200062,0.0
0.013000000000000001,-1.878671014556977,0.8131145021312184,0.0,-0.02447718347044717,0.1524885022022896,0.0
0.0135,-1.8781785842540992,0.8101004921416346,0.0,-0.02541639664262201,0.15289430628461834,0.0
0.014,-1.8776676170868463,0.8070784867872444,0.0,-0.02635535896522287,0.15329860136186998,0.0
0.0145,-1.8771381180982576,0.8040485158940203,0.0,-0.027294061171070968,0.15370138344381534,0.0
0.015,-1.8765900925142747,0.8010106093665518,0.0,-0.02823249399555423,0.15410264855515787,0.0
0.0155,-1.8760235457436887,0.7979647971877498,0.0,-0.02917064817671981,0.15450239273557287,0.0
0.016,-1.8754384833780877,0.7949111094185513,0.0,-0.030108514455364416,0.15490061203974678,0.0
0.0165,-1.8748349111918008,0.7918495761976211,0.0,-0.03104608357512678,0.15529730253741572,0.0
0.017,-1.874212835141842,0.7887802277410565,0.0,-0.031983346282577936,0.1556924603134047,0.0
0.0175,-1.8735722613678505,0.7857030943420876,0.0,-0.032920293327313485,0.15608608146766595,0.0
0.018000000000000002,-1.8729131961920311,0.7826182063707787,0.0,-0.03385691546204449,0.15647816211531762,0.0
0.0185,-1.872235646119091,0.7795255942737288,0.0,-0.03479320344268833,0.15686869838668202,0.0
0.019,-1.8715396178361758,0.7764252885737705,0.0,-0.035729148028460916,0.1572576864273238,0.0
0.0195,-1.8708251182128035,0.7733173198696697,0.0,-0.03666473998196677,0.15764512239808803,0.0
0.02,-1.8700921543007973,0.7702017188358226,0.0,-0.037599970069291284,0.15803100247513807,0.0
0.0205,-1.869340733334215,0.7670785162219534,0.0,-0.03853482906009081,0.1584153228499934,0.0
0.021,-1.8685708627292776,0.7639477428528113,0.0,-0.03946930772768465,0.15879807972956705,0.0
0.021500000000000002,-1.867782550084298,0.7608094296278655,0.0,-0.040403396849145755,0.1591792693362032,0.0
0.022,-1.8669758031796035,0.7576636075210005,0.0,-0.04133708720539133,0.15955888790771422,0.0
0.0225,-1.8661506299774597,0.7545103075802103,0.0,-0.04227036958127478,0.1599369316974181,0.0
0.023,-1.865307038621994,0.7513495609272924,0.0,-0.04320323476567558,0.16031339697417532,0.0
0.0235,-1.864445037439112,0.7481813987575403,0.0,-0.04413567355159122,0.16068828002242552,0.0
0.024,-1.8635646349364174,0.7450058523394356,0.0,-0.04506767673622706,0.16106157714222438,0.0
0.0245,-1.862665839803127,0.7418229530143393,0.0,-0.0459992351210882,0.16143328464928006,0.0
0.025,-1.861748660909987,0.7386327321961826,0.0,-0.046930339512069215,0.1618033988749895,0.0
0.025500000000000002,-1.8608131073091818,0.7354352213711575,0.0,-0.047860980719545795,0.1621719161664747,0.0
0.026000000000000002,-1.8598591882342481,0.7322304520974044,0.0,-0.04879114955846506,0.1625388328866188,0.0
0.0265,-1.858886913099982,0.7290184560047028,0.0,-0.04972083684843583,0.1629041454141019,0.0
0.027,-1.857896291502347,0.7257992647941569,0.0,-0.05065003341382015,0.1632678501434368,0.0
0.0275,-1.8568873332183777,0.7225729102378845,0.0,-0.0515787300838228,0.1636299434850047,0.0
0.028,-1.855860048206085,0.7193394241787028,0.0,-0.052506917692582825,0.16399042186509047,0.0
0.0285,-1.854814446604358,0.7160988385298132,0.0,-0.05343458707926299,0.16434928172591803,0.0
0.029,-1.8537505387328614,0.7128511852744881,0.0,-0.054361729088141235,0.1647065195256855,0.0
0.029500000000000002,-1.8526683350919373,0.7095964964657541,0.0,-0.055288334568699964,0.16506213173859993,0.0
0.03,-1.8515678463624983,0.7063348042260758,0.0,-0.0562143943757173,0.16541611485491237,0.0
0.0305,-1.8504490834059237,0.7030661407470385,0.0,-0.05713989936935695,0.16576846538095238,0.0
0.031,-1.8493120572639523,0.6997905382890315,0.0,-0.058064840415258,0.16611917983916252,0.0
0.0315,-1.8481567791585733,0.6965080291809284,0.0,-0.05898920838462601,0.16646825476813268,0.0
0.032,-1.8469832604919152,0.6932186458197687,0.0,-0.059912994154322045,0.16681568672263425,0.0
0.0325,-1.845791512846133,0.6899224206704387,0.0,-0.06083618860695375,0.16716147227365405,0.0
0.033,-1.8445815479832957,0.6866193862653496,0.0,-0.061758782630964355,0.16750560800842834,0.0
0.0335,-1.843353377845267,0.6833095752041175,0.0,-0.06268076712072354,0.16784809053047633,0.0
0.034,-1.8421070145535914,0.6799930201532413,0.0,-0.06360213297661636,0.16818891645963382,0.0
0.0345,-1.8408424704093707,0.6766697538457805,0.0,-0.06452287110513392,0.16852808243208647,0.0
0.035,-1.8395597578931449,0.673339809081032,0.0,-0.06544297241896276,0.16886558510040303,0.0
0.035500000000000004,-1.8382588896647691,0.6700032187242061,0.0,-0.06636242783707406,0.16920142113356845,0.0
0.036000000000000004,-1.8369398785632873,0.6666600157061024,0.0,-0.06728122828481435,0.16953558721701667,0.0
0.0365,-1.8356027376068071,0.6633102330227857,0.0,-0.06819936469399387,0.1698680800526633,0.0
0.037,-1.8342474799923691,0.6599539037352579,0.0,-0.0691168280029772,0.17019889635893837,0.0
0.0375,-1.8328741190958198,0.6565910609691344,0.0,-0.07003360915677158,0.17052803287081844,0.0
0.038,-1.8314826684716758,0.6532217379143157,0.0,-0.0709496991071173,0.17085548633985903,0.0
0.0385,-1.8300731418529936,0.6498459678246602,0.0,-0.07186508881257653,0.1711812535342266,0.0
0.039,-1.8286455531512318,0.6464637840176555,0.0,-0.07277976923862214,0.17150533123873046,0.0
0.0395,-1.8271999164561141,0.6430752198740907,0.0,-0.07369373135772789,0.1718277162548545,0.0
0.04,-1.825736246035492,0.6396803088377258,0.0,-0.07460696614945637,0.1721484054007887,0.0
0.0405,-1.8242545563352006,0.6362790844149618,0.0,-0.07551946460054913,0.17246739551146079,0.0
0.041,-1.8227548619789198,0.6328715801745111,0.0,-0.0764312177050146,0.17278468343856707,0.0
0.0415,-1.8212371777680272,0.6294578297470644,0.0,-0.07734221646421785,0.1731002660506038,0.0
0.042,-1.819701518681453,0.6260378668249607,0.0,-0.07825245188696904,0.17341414023289803,0.0
0.0425,-1.8181478998755327,0.622611725161853,0.0,-0.0791619149896119,0.17372630288763827,0.0
0.043000000000000003,-1.8165763366838565,0.6191794385723767,0.0,-0.08007059679611266,0.17403675093390514,0.0
0.043500000000000004,-1.8149868446171191,0.6157410409318143,0.0,-0.08097848833814883,0.17434548130770178,0.0
0.044,-1.813379439362965,0.612296566175763,0.0,-0.08188558065519756,0.174652490961984,0.0
0.0445,-1.8117541367858354,0.6088460482997974,0.0,-0.08279186479462365,0.17495777686669056,0.0
0.045,-1.8101109529268102,0.605389521359136,0.0,-0.08369733181176878,0.17526133600877272,0.0
0.0455,-1.8084499040034512,0.6019270194683047,0.0,-0.08460197277003878,0.17556316539222436,0.0
0.046,-1.8067710064096403,0.5984585768007988,0.0,-0.08550577874099273,0.17586326203811126,0.0
0.0465,-1.805074276715419,0.5949842275887476,0.0,-0.08640874080443073,0.17616162298460072,0.0
0.047,-1.8033597316668248,0.5915040061225748,0.0,-0.08731085004848146,0.17645824528699067,0.0
0.0475,-1.8016273881857245,0.5880179467506614,0.0,-0.08821209756969116,0.1767531260177387,0.0
0.048,-1.7998772633696496,0.5845260838790063,0.0,-0.08911247447311041,0.17704626226649103,0.0
0.0485,-1.7981093744916248,0.5810284519708856,0.0,-0.09001197187238287,0.17733765114011132,0.0
0.049,-1.796323739,0.577525085546515,0.0,-0.09091058088983213,0.17762728976270892,0.0
0.0495,-1.7945203745182763,0.5740160191827062,0.0,-0.09180829265655023,0.17791517527566758,0.0
0.05,-1.7926992988449337,0.5705012875125276,0.0,-0.09270509831248418,0.17820130483767357,0.0
0.0505,-1.7908605299532532,0.5669809252249621,0.0,-0.09360098900652436,0.1784856756247436,0.0
0.051000000000000004,-1.7890040859911416,0.563454967064564,0.0,-0.09449595589659142,0.17876828483025275,0.0
0.051500000000000004,-1.7871299852809517,0.559923447831117,0.0,-0.0953899901497232,0.17904912966496234,0.0
0.052000000000000005,-1.7852382463193004,0.55638640237929,0.0,-0.09628308294216284,0.1793282073570472,0.0
0.0525,-1.783328887776888,0.5528438656182942,0.0,-0.09717522545944475,0.1796055151521231,0.0
0.053,-1.7814019284983118,0.5492958725115366,0.0,-0.09806640889648276,0.1798810503132742,0.0
0.0535,-1.7794573875018829,0.545742458076277,0.0,-0.09895662445765581,0.18015481012107962,0.0
0.054,-1.777495283979435,0.5421836573832812,0.0,-0.09984586335689602,0.18042679187364058,0.0
0.0545,-1.7755156372961385,0.5386195055564755,0.0,-0.10073411681777415,0.18069699288660698,0.0
0.055,-1.7735184669903064,0.5350500377725995,0.0,-0.10162137607358733,0.18096541049320392,0.0
0.0555,-1.7715037927732031,0.5314752892608591,0.0,-0.10250763236744496,0.181232042044258,0.0
0.056,-1.7694716345288506,0.5278952953025792,0.0,-0.10339287695235505,0.18149688490822338,0.0
0.0565,-1.7674220123138296,0.5243100912308541,0.0,-0.10427710109131111,0.18175993647120803,0.0
0.057,-1.7653549463570843,0.5207197124302017,0.0,-0.10516029605737763,0.18202119413699913,0.0
0.0575,-1.763270457059721,0.5171241943362103,0.0,-0.10604245313377714,0.18228065532708904,0.0
0.058,-1.761168564994808,0.5135235724351922,0.0,-0.10692356361397518,0.18253831748070057,0.0
0.0585,-1.7590492909071704,0.5099178822638322,0.0,-0.10780361880176723,0.18279417805481224,0.0
0.059000000000000004,-1.756912655713189,0.5063071594088364,0.0,-0.10868261001136367,0.1830482345241835,0.0
0.059500000000000004,-1.75475868050059,0.5026914395065816,0.0,-0.10956052856747626,0.1833004843813796,0.0
0.06,-1.7525873865282389,0.4990707582427637,0.0,-0.11043736580540338,0.18355092513679624,0.0
0.0605,-1.7503987952259312,0.4954451513520452,0.0,-0.11131311307111523,0.18379955431868428,0.0
0.061,-1.7481929281941786,0.4918146546177019,0.0,-0.11218776172134014,0.18404636947317407,0.0
0.0615,-1.7459698072039995,0.48817930387127106,0.0,-0.11306130312364873,0.1842913681642997,0.0
0.062,-1.7437294541966997,0.4845391349921971,0.0,-0.11393372865654021,0.18453454797402297,0.0
0.0625,-1.7414718912836586,0.48089418390747707,0.0,-0.1148050297095269,0.18477590650225736,0.0
0.063,-1.7391971407461113,0.4772444865913067,0.0,-0.11567519768321899,0.18501544136689163,0.0
0.0635,-1.7369052250349275,0.47359007906472506,0.0,-0.11654422398940979,0.18525315020381333,0.0
0.064,-1.7345961667703895,0.46993099739525906,0.0,-0.11741210005116064,0.1854890306669323,0.0
0.0645,-1.73226998874197,0.4662672776965677,0.0,-0.11827881730288528,0.18572308042820349,0.0
0.065,-1.7299267139081076,0.4625989561280854,0.0,-0.11914436719043411,0.18595529717765027,0.0
0.0655,-1.727566365395978,0.4589260688946646,0.0,-0.12000874117117943,0.18618567862338714,0.0
0.066,-1.7251889665012696,0.4552486522462197,0.0,-0.12087193071409875,0.1864142224916422,0.0
0.0665,-1.7227945406879481,0.4515667424773685,0.0,-0.12173392729986002,0.18664092652677972,0.0
0.067,-1.7203831115880308,0.44788037592707397,0.0,-0.12259472242090468,0.1868657884913224,0.0
0.0675,-1.7179547030013482,0.4441895889782856,0.0,-0.12345430758153265,0.18708880616597345,0.0
0.068,-1.715509338895314,0.44049441805758055,0.0,-0.12431267429798522,0.1873099773496385,0.0
0.0685,-1.713047043404684,0.43679489963480417,0.0,-0.1251698140985295,0.18752929985944713,0.0
0.069,-1.7105678408313205,0.43309107022270965,0.0,-0.12602571852354186,0.18774677153077482,0.0
0.0695,-1.7080717556439522,0.4293829663765981,0.0,-0.12688037912559091,0.18796239021726394,0.0
0.07,-1.7055588124779317,0.4256706246939569,0.0,-0.1277337874695218,0.18817615379084512,0.0
0.07050000000000001,-1.703029036134995,0.42195408181410066,0.0,-0.12858593513253846,0.18838806014175813,0.0
0.07100000000000001,-1.7004824515830115,0.4182333744178064,0.0,-0.12943681370428772,0.1885981071785729,0.0
0.07150000000000001,-1.6979190839557436,0.4145085392269543,0.0,-0.13028641478694136,0.18880629282820996,0.0
0.07200000000000001,-1.6953389585525944,0.4107796130041639,0.0,-0.13113472999527992,0.18901261503596098,0.0
0.0725,-1.692742100838361,0.40704663255243156,0.0,-0.13198175095677453,0.18921707176550906,0.0
0.073,-1.6901285364429797,0.40330963471476755,0.0,-0.1328274693116704,0.18941966099894886,0.0
0.0735,-1.687498291161276,0.3995686563738314,0.0,-0.13367187671306888,0.1896203807368064,0.0
0.074,-1.6848513909527094,0.3958237344515691,0.0,-0.13451496482700961,0.18981922899805892,0.0
0.0745,-1.6821878619411157,0.39207490590884836,0.0,-0.13535672533255352,0.19001620382015436,0.0
0.075,-1.6795077304144517,0.38832220774509335,0.0,-0.136197149921864,0.1902113032590307,0.0
0.0755,-1.6768110228245334,0.38456567699791994,0.0,-0.13703623030028975,0.19040452538913533,0.0
0.076,-1.6740977657867755,0.38080535074276994,0.0,-0.13787395818644632,0.19059586830344377,0.0
0.0765,-1.67136798607993,0.37704126609254573,0.0,-0.13871032531229746,0.1907853301134787,0.0
0.077,-1.6686217106458203,0.3732734601972424,0.0,-0.1395453234232375,0.1909729089493286,0.0
0.0775,-1.6658589665890766,0.36950197024358405,0.0,-0.14037894427817194,0.19115860295966602,0.0
0.078,-1.6630797811768667,0.365726833454653,0.0,-0.14121117964959976,0.1913424103117661,0.0
0.0785,-1.6602841818386296,0.36194808708952575,0.0,-0.1420420213236936,0.19152432919152446,0.0
0.079,-1.6574721961658012,0.35816576844290327,0.0,-0.14287146110038174,0.19170435780347517,0.0
0.0795,-1.6546438519115454,0.3543799148447436,0.0,-0.14369949079342825,0.1918824943708086,0.0
0.08,-1.651799176990478,0.35059056365989344,0.0,-0.14452610223051449,0.19205873713538862,0.0
0.0805,-1.648938199478392,0.34679775228771903,0.0,-0.14535128725331936,0.1922330843577704,0.0
0.081,-1.6460609476119805,0.34300151816173774,0.0,-0.14617503771759963,0.1924055343172172,0.0
0.0815,-1.6431674497885576,0.339201898749247,0.0,-0.14699734549327095,0.19257608531171755,0.0
0.082,-1.640257734565779,0.33539893155095746,0.0,-0.1478182024644874,0.19274473565800196,0.0
0.0825,-1.6373318306613587,0.331592654100619,0.0,-0.14863760052972225,0.19291148369155964,0.0
0.083,-1.6343897669527878,0.3277831039646545,0.0,-0.14945553160184719,0.1930763277666548,0.0
0.0835,-1.6314315724770465,0.32397031874178495,0.0,-0.15027198760821298,0.19323926625634294,0.0
0.084,-1.628457276430321,0.3201543360626615,0.0,-0.1510869604907282,0.193400297552487,0.0
0.0845,-1.6254669081677118,0.31633519358949275,0.0,-0.15190044220593968,0.1935594200657731,0.0
0.085,-1.622460497202946,0.3125129290156729,0.0,-0.15271242472511135,0.19371663222572622,0.0
0.0855,-1.6194380732080873,0.3086875800654105,0.0,-0.1535229000343034,0.19387193248072587,0.0
0.08600000000000001,-1.616399666013239,0.3048591844933546,0.0,-0.1543318601344519,0.1940253192980212,0.0
0.08650000000000001,-1.6133453056062546,0.3010277800842248,0.0,-0.1551392970414471,0.1941767911637462,0.0
0.08700000000000001,-1.6102750221324371,0.29719340465243493,0.0,-0.15594520278621285,0.1943263465829348,0.0
0.08750000000000001,-1.607188845894246,0.2933560960417235,0.0,-0.1567495694147846,0.1944739840795353,0.0
0.088,-1.6040868073509944,0.2895158921247768,0.0,-0.1575523889883886,0.19461970219642533,0.0
0.0885,-1.6009689371185498,0.2856728308028566,0.0,-0.1583536535835199,0.1947634994954258,0.0
0.089,-1.5978352659690336,0.2818269500054277,0.0,-0.15915335529202015,0.19490537455731544,0.0
0.0895,-1.5946858248305142,0.27797828768977983,0.0,-0.15995148622115657,0.19504532598184468,0.0
0.09,-1.5915206447867045,0.27412688184065737,0.0,-0.16074803849369892,0.19518335238774948,0.0
0.0905,-1.5883397570766538,0.27027277046988035,0.0,-0.16154300424799806,0.19531945241276494,0.0
0.091,-1.5851431930944393,0.26641599161597235,0.0,-0.1623363756380627,0.1954536247136387,0.0
0.0915,-1.5819309843888574,0.26255658334378357,0.0,-0.16312814483363766,0.19558586796614438,0.0
0.092,-1.5787031626631103,0.2586945837441156,0.0,-0.1639183040202807,0.19571618086509443,0.0
0.0925,-1.5754597597744961,0.2548300309333453,0.0,-0.16470684539943953,0.19584456212435317,0.0
0.093,-1.5722008077340925,0.2509629630530487,0.0,-0.16549376118852904,0.1959710104768494,0.0
0.0935,-1.5689263387064394,0.24709341826962491,0.0,-0.16627904362100812,0.1960955246745889,0.0
0.094,-1.565636385009224,0.2432214347739179,0.0,-0.16706268494645637,0.19621810348866683,0.0
0.0945,-1.562330979112962,0.23934705078084267,0.0,-0.16784467743065004,0.19633874570927978,0.0
0.095,-1.5590101536406744,0.2354703045290043,0.0,-0.16862501335563918,0.19645745014573773,0.0
0.0955,-1.5556739413675686,0.2315912342803234,0.0,-0.16940368501982309,0.19657421562647584,0.0
0.096,-1.5523223752207125,0.22770987831965733,0.0,-0.17018068473802686,0.19668904099906595,0.0
0.0965,-1.5489554882787102,0.22382627495442248,0.0,-0.1709560048415771,0.19680192513022796,0.0
0.097,-1.5455733137713774,0.21994046251421612,0.0,-0.1717296376783773,0.1969128669058411,0.0
0.0975,-1.5421758850794114,0.21605247935043834,0.0,-0.17250157561298354,0.1970218652309548,0.0
0.098,-1.538763235734061,0.2121623638359135,0.0,-0.1732718110266802,0.19712891902979962,0.0
0.0985,-1.5353353994167975,0.20827015436451046,0.0,-0.1740403363175548,0.19723402724579778,0.0
0.099,-1.5318924099589821,0.2043758893507665,0.0,-0.17480714390057275,0.1973371888415736,0.0
0.0995,-1.52843430134153,0.20047960722950395,0.0,-0.17557222620765303,0.19743840279896385,0.0
0.1,-1.524961107694578,0.19658134645545552,0.0,-0.1763355756877419,0.19753766811902757,0.0
0.1005,-1.5214728632971446,0.19268114550288037,0.0,-0.17709718480688827,0.19763498382205613,0.0
0.101,-1.5179696025767937,0.18877904286518765,0.0,-0.17785704604831773,0.19773034894758282,0.0
0.1015,-1.5144513601092944,0.184875077054555,0.0,-0.17861515191250651,0.19782376255439238,0.0
0.10200000000000001,-1.5109181706182802,0.18096928660154896,0.0,-0.17937149491725565,0.1979152237205302,0.0
0.10250000000000001,-1.507370068974904,0.17706171005474466,0.0,-0.18012606759776517,0.19800473154331152,0.0
0.10300000000000001,-1.5038070901974967,0.1731523859803443,0.0,-0.1808788625067074,0.19809228513933025,0.0
0.10350000000000001,-1.500229269451221,0.16924135296179926,0.0,-0.18162987221430035,0.19817788364446776,0.0
0.10400000000000001,-1.4966366420477224,0.16532864959942548,0.0,-0.18237908930838165,0.19826152621390133,0.0
0.1045,-1.4930292434447838,0.16141431451002658,0.0,-0.18312650639448072,0.19834321202211258,0.0
0.105,-1.4894071092459729,0.15749838632650906,0.0,-0.18387211609589288,0.19842294026289556,0.0
0.1055,-1.485770275200291,0.1535809036975026,0.0,-0.1846159110537514,0.19850071014936477,0.0
0.106,-1.4821187772018234,0.1496619052869803,0.0,-0.18535788392710023,0.19857652091396275,0.0
0.1065,-1.4784526512893796,0.14574142977387325,0.0,-0.1860980273929668,0.1986503718084679,0.0
0.107,-1.4747719336461438,0.14181951585169308,0.0,-0.1868363341464337,0.19872226210400168,0.0
0.1075,-1.4710766605993124,0.13789620222814603,0.0,-0.18757279690071146,0.19879219109103596,0.0
0.108,-1.467366868619738,0.13397152762475395,0.0,-0.1883074083872101,0.1988601580793998,0.0
0.1085,-1.4636425943215703,0.13004553077647066,0.0,-0.18904016135561072,0.19892616239828648,0.0
0.109,-1.4599038744618935,0.12611825043130015,0.0,-0.1897710485739373,0.19899020339626006,0.0
0.1095,-1.4561507459403629,0.12218972534991417,0.0,-0.19050006282862814,0.19905228044126166,0.0
0.11,-1.452383245798841,0.11825999430526839,0.0,-0.19122719692460688,0.199112392920616,0.0
0.1105,-1.4486014112210346,0.11432909608222287,0.0,-0.19195244368535347,0.19917054024103714,0.0
0.111,-1.444805279532123,0.110397069477155,0.0,-0.19267579595297532,0.19922672182863452,0.0
0.1115,-1.4409948881983943,0.10646395329758102,0.0,-0.19339724658827737,0.19928093712891848,0.0
0.112,-1.4371702748268722,0.10252978636176897,0.0,-0.1941167884708332,0.199333185606806,0.0
0.1125,-1.4333314771649464,0.09859460749835847,0.0,-0.19483441449905506,0.1993834667466256,0.0
0.113,-1.4294785331,0.09465845554597621,0.0,-0.19555011759026364,0.1994317800521228,0.0
0.1135,-1.4256114806590365,0.0907213693528529,0.0,-0.1962638906807583,0.19947812504646475,0.0
0.114,-1.4217303580083014,0.08678338777643976,0.0,-0.19697572672588684,0.19952250127224505,0.0
0.1145,-1.417835203452908,0.08284454968302514,0.0,-0.19768561870011506,0.19956490829148832,0.0
0.115,-1.4139260554364603,0.07890489394735112,0.0,-0.1983935595970955,0.19960534568565433,0.0
0.1155,-1.41000295254067,0.07496445945222849,0.0,-0.19909954242973754,0.19964381305564238,0.0
0.116,-1.4060659334849799,0.07102328508815597,0.0,-0.19980356023027543,0.199680310021795,0.0
0.1165,-1.4021150371261781,0.06708140975293264,0.0,-0.20050560605033782,0.19971483622390196,0.0
0.117,-1.398150302458016,0.06313887235127691,0.0,-0.20120567296101596,0.1997473913212035,0.0
0.11750000000000001,-1.3941717686108246,0.059195711794441254,0.0,-0.201903754052932,0.19977797499239403,0.0
0.11800000000000001,-1.3901794748511276,0.05525196699982846,0.0,-0.2025998424363073,0.19980658693562495,0.0
0.11850000000000001,-1.3861734605812521,0.05130767689060751,0.0,-0.20329393124103062,0.19983322686850802,0.0
0.11900000000000001,-1.3821537653389409,0.04736288039532939,0.0,-0.20398601361672572,0.19985789452811786,0.0
0.11950000000000001,-1.3781204287969644,0.04341761644754322,0.0,-0.20467608273281887,0.1998805896709946,0.0
0.12,-1.374073490762725,0.03947192398541083,0.0,-0.2053641317786066,0.19990131207314632,0.0
0.1205,-1.3700129911778678,0.03552584195132417,0.0,-0.20605015396332244,0.19992006153005132,0.0
0.121,-1.3659389701178848,0.03157940929151981,0.0,-0.20673414251620445,0.19993683785666,0.0
0.1215,-1.3618514677917177,0.027632664955694865,0.0,-0.2074160906865619,0.1999516408873968,0.0
0.122,-1.3577505245413657,0.023685647896622846,0.0,-0.2080959917438414,0.1999644704761618,0.0
0.1225,-1.3536361808414823,0.01973839706976781,0.0,-0.20877383897769428,0.19997532649633212,0.0
0.123,-1.3495084772989794,0.015790951432902968,0.0,-0.20944962569804174,0.19998420884076323,0.0
0.1235,-1.3453674546526235,0.01184334994572199,0.0,-0.2101233452351419,0.19999111742179,0.0
0.124,-1.3412131537726377,0.007895631569458961,0.0,-0.21079499093965473,0.19999605217122743,0.0
0.1245,-1.3370456156602935,0.003947835266499656,0.0,-0.21146455618270843,0.19999901304037165,0.0
0.125,-1.3328648814475101,7.694682774887159e-17,0.0,-0.21213203435596423,0.2,0.0
0.1255,-1.3286709923964461,-0.003947835266499502,0.0,-0.2127974188716821,0.19999901304037165,0.0
0.126,-1.324463989899093,-0.007895631569458807,0.0,-0.21346070316278556,0.19999605217122743,0.0
0.1265,-1.3202439154768677,-0.011843349945721835,0.0,-0.2141218806829263,0.19999111742179,0.0
0.127,-1.3160108107802002,-0.015790951432902815,0.0,-0.21478094490654934,0.19998420884076323,0.0
0.1275,-1.311764717588126,-0.019738397069767658,0.0,-0.2154378893289566,0.19997532649633212,0.0
0.128,-1.3075056778078693,-0.023685647896622693,0.0,-0.21609270746637207,0.1999644704761618,0.0
0.1285,-1.3032337334744348,-0.027632664955694712,0.0,-0.2167453928560049,0.1999516408873968,0.0
0.129,-1.2989489267501868,-0.03157940929151965,0.0,-0.217395939056114,0.19993683785666,0.0
0.1295,-1.2946512999244395,-0.035525841951324015,0.0,-0.2180443396460708,0.19992006153005132,0.0
0.13,-1.2903408954130338,-0.03947192398541068,0.0,-0.2186905882264234,0.19990131207314632,0.0
0.1305,-1.2860177557579213,-0.043417616447543064,0.0,-0.21933467841895923,0.1998805896709946,0.0
0.131,-1.2816819236267467,-0.04736288039532924,0.0,-0.21997660386676796,0.19985789452811786,0.0
0.1315,-1.2773334418124211,-0.05130767689060763,0.0,-0.22061635823430473,0.19983322686850802,0.0
0.132,-1.2729723532327057,-0.05525196699982831,0.0,-0.2212539352074521,0.19980658693562495,0.0
0.1325,-1.2685987009297832,-0.05919571179444138,0.0,-0.2218893284935829,0.19977797499239403,0.0
0.133,-1.2642125280698369,-0.06313887235127674,0.0,-0.2225225318216217,0.1997473913212035,0.0
0.1335,-1.2598138779426213,-0.06708140975293249,0.0,-0.22315353894210752,0.19971483622390196,0.0
0.134,-1.2554027939610386,-0.07102328508815582,0.0,-0.22378234362725463,0.199680310021795,0.0
0.1345,-1.250979319660706,-0.0749644594522286,0.0,-0.2244089396710147,0.19964381305564238,0.0
0.135,-1.2465434986995285,-0.07890489394735097,0.0,-0.22503332088913783,0.19960534568565433,0.0
0.1355,-1.2420953748572694,-0.08284454968302499,0.0,-0.22565548111923336,0.19956490829148832,0.0
0.136,-1.237634992035114,-0.08678338777643989,0.0,-0.2262754142208311,0.19952250127224505,0.0
0.1365,-1.2331623942552414,-0.09072136935285274,0.0,-0.22689311407544152,0.19947812504646475,0.0
0.137,-1.2286776256603853,-0.09465845554597634,0.0,-0.22750857458661644,0.1994317800521228,0.0
0.1375,-1.2241807305133998,-0.09859460749835831,0.0,-0.22812178968000935,0.1993834667466256,0.0
0.138,-1.2196717531968273,-0.10252978636176882,0.0,-0.22873275330343434,0.199333185606806,0.0
0.1385,-1.215150738212452,-0.10646395329758088,0.0,-0.22934145942692746,0.19928093712891848,0.0
0.139,-1.210617730180867,-0.11039706947715512,0.0,-0.22994790204280488,0.19922672182863452,0.0
0.1395,-1.2060727738410297,-0.1143290960822227,0.0,-0.23055207516572304,0.19917054024103714,0.0
0.14,-1.2015159140498273,-0.1182599943052685,0.0,-0.2311539728327368,0.199112392920616,0.0
0.1405,-1.1969471957816247,-0.12218972534991401,0.0,-0.23175358910335933,0.19905228044126166,0.0
0.14100000000000001,-1.192366664127827,-0.1261182504313,0.0,-0.2323509180596201,0.19899020339626006,0.0
0.14150000000000001,-1.1877743642964322,-0.1300455307764708,0.0,-0.23294595380612348,0.19892616239828648,0.0
0.14200000000000002,-1.1831703416115844,-0.13397152762475378,0.0,-0.23353869047010706,0.1988601580793998,0.0
0.14250000000000002,-1.1785546415131314,-0.1378962022281459,0.0,-0.23412912220149892,0.19879219109103596,0.0
0.14300000000000002,-1.1739273095561682,-0.14181951585169295,0.0,-0.23471724317297643,0.19872226210400168,0.0
0.14350000000000002,-1.1692883914105936,-0.1457414297738734,0.0,-0.23530304758002296,0.1986503718084679,0.0
0.14400000000000002,-1.164637932860655,-0.14966190528698017,0.0,-0.23588652964098572,0.19857652091396275,0.0
0.1445,-1.1599759798045042,-0.15358090369750244,0.0,-0.23646768359713205,0.19850071014936477,0.0
0.145,-1.1553025782537336,-0.15749838632650864,0.0,-0.2370465037127071,0.1984229402628956,0.0
0.1455,-1.1506177743329302,-0.1614143145100264,0.0,-0.23762298427499007,0.19834321202211258,0.0
0.146,-1.1459216142792175,-0.16532864959942534,0.0,-0.2381971195943505,0.19826152621390133,0.0
0.1465,-1.1412141444417991,-0.16924135296179912,0.0,-0.23876890400430464,0.19817788364446776,0.0
0.147,-1.1364954112815002,-0.17315238598034413,0.0,-0.23933833186157133,0.19809228513933028,0.0
0.1475,-1.1317654613703154,-0.17706171005474453,0.0,-0.23990539754612714,0.19800473154331152,0.0
0.148,-1.1270243413909389,-0.18096928660154882,0.0,-0.2404700954612629,0.19791522372053022,0.0
0.1485,-1.1222720981363112,-0.18487507705455486,0.0,-0.24103242003363817,0.19782376255439238,0.0
0.149,-1.1175087785091529,-0.18877904286518749,0.0,-0.24159236571333662,0.19773034894758282,0.0
0.1495,-1.1127344295215087,-0.19268114550288024,0.0,-0.24214992697392007,0.19763498382205613,0.0
0.15,-1.1079490982942741,-0.19658134645545539,0.0,-0.24270509831248419,0.19753766811902757,0.0
0.1505,-1.1031528320567368,-0.2004796072295038,0.0,-0.243257874249712,0.19743840279896385,0.0
0.151,-1.0983456781461076,-0.20437588935076634,0.0,-0.24380824932992806,0.1973371888415736,0.0
0.1515,-1.093527684007054,-0.20827015436451032,0.0,-0.24435621812115282,0.19723402724579778,0.0
0.152,-1.0886988971912355,-0.21216236383591333,0.0,-0.24490177521515516,0.19712891902979962,0.0
0.1525,-1.0838593653568271,-0.21605247935043814,0.0,-0.24544491522750697,0.1970218652309548,0.0
0.153,-1.0790091362680545,-0.21994046251421598,0.0,-0.2459856327976356,0.1969128669058411,0.0
0.1535,-1.0741482577947192,-0.22382627495442234,0.0,-0.2465239225888771,0.19680192513022798,0.0
0.154,-1.069276777911732,-0.2277098783196572,0.0,-0.24705977928852824,0.19668904099906595,0.0
0.1545,-1.0643947446986313,-0.23159123428032327,0.0,-0.24759319760789983,0.19657421562647584,0.0
0.155,-1.0595022063391142,-0.23547030452900414,0.0,-0.24812417228236847,0.19645745014573776,0.0
0.1555,-1.0545992111205587,-0.23934705078084254,0.0,-0.24865269807142848,0.19633874570927978,0.0
0.156,-1.049685807433547,-0.24322143477391775,0.0,-0.24917876975874378,0.19621810348866683,0.0
0.1565,-1.0447620437713925,-0.24709341826962475,0.0,-0.249702382152199,0.1960955246745889,0.0
0.157,-1.0398279687296534,-0.25096296305304855,0.0,-0.2502235300839513,0.1959710104768494,0.0
0.1575,-1.0348836310056588,-0.25483003093334516,0.0,-0.250742208410481,0.1958445621243532,0.0
0.158,-1.029929079398024,-0.25869458374411547,0.0,-0.25125841201264254,0.19571618086509443,0.0
0.1585,-1.024964362806176,-0.26255658334378346,0.0,-0.2517721357957145,0.19558586796614438,0.0
0.159,-1.019989530229862,-0.2664159916159722,0.0,-0.2522833746894507,0.1954536247136387,0.0
0.1595,-1.0150046307686713,-0.2702727704698802,0.0,-0.2527921236481296,0.19531945241276494,0.0
0.16,-1.010009713621549,-0.2741268818406572,0.0,-0.2532983776506044,0.1951833523877495,0.0
0.1605,-1.0050048280863089,-0.2779782876897799,0.0,-0.2538021317003527,0.19504532598184468,0.0
0.161,-0.9999900235591539,-0.28182695000542723,0.0,-0.25430338082552495,0.19490537455731546,0.0
0.1615,-0.9949653495341787,-0.28567283080285644,0.0,-0.25480212007899494,0.1947634994954258,0.0
0.162,-0.9899308556028874,-0.2895158921247764,0.0,-0.2552983445384075,0.19461970219642533,0.0
0.1625,-0.984886591453701,-0.29335609604172336,0.0,-0.25579204930622773,0.19447398407953534,0.0
0.163,-0.9798326068714736,-0.2971934046524351,0.0,-0.25628322950978855,0.1943263465829348,0.0
0.1635,-0.9747689517369905,-0.3010277800842247,0.0,-0.2567718803013399,0.1941767911637462,0.0
0.164,-0.9696956760264839,-0.3048591844933547,0.0,-0.25725799685809564,0.19402531929802116,0.0
0.1645,-0.9646128298111368,-0.30868758006541036,0.0,-0.2577415743822816,0.19387193248072587,0.0
0.165,-0.959520463256588,-0.312512929015673,0.0,-0.25822260810118314,0.19371663222572622,0.0
0.1655,-0.9544186266224426,-0.31633519358949286,0.0,-0.2587010932671912,0.1935594200657731,0.0
0.166,-0.9493073702617667,-0.32015433606266136,0.0,-0.2591770251578505,0.19340029755248703,0.0
0.1665,-0.9441867446205972,-0.32397031874178484,0.0,-0.25965039907590565,0.19323926625634297,0.0
0.167,-0.9390568002374404,-0.3277831039646543,0.0,-0.26012121034934704,0.1930763277666548,0.0
0.1675,-0.9339175877427794,-0.3315926541006191,0.0,-0.26058945433145736,0.19291148369155964,0.0
0.168,-0.9287691578585651,-0.3353989315509573,0.0,-0.26105512640085765,0.19274473565800196,0.0
0.1685,-0.923611561397722,-0.33920189874924717,0.0,-0.2615182219615526,0.19257608531171755,0.0
0.169,-0.918444849263645,-0.34300151816173763,0.0,-0.261978736442976,0.1924055343172172,0.0
0.1695,-0.9132690724496955,-0.3467977522877192,0.0,-0.26243666530003584,0.1922330843577704,0.0
0.17,-0.9080842820387041,-0.35059056365989355,0.0,-0.26289200401315904,0.19205873713538862,0.0
0.1705,-0.9028905292024573,-0.3543799148447435,0.0,-0.26334474808833647,0.1918824943708086,0.0
0.171,-0.8976878652011989,-0.3581657684429031,0.0,-0.2637948930571668,0.1917043578034752,0.0
0.1715,-0.8924763413831208,-0.36194808708952564,0.0,-0.2642424344769011,0.19152432919152446,0.0
0.17200000000000001,-0.887256009183862,-0.3657268334546529,0.0,-0.26468736793048603,0.1913424103117661,0.0
0.17250000000000001,-0.8820269201259924,-0.36950197024358383,0.0,-0.265129689026608,0.19115860295966602,0.0
0.17300000000000001,-0.8767891258185097,-0.3732734601972425,0.0,-0.2655693933997365,0.1909729089493286,0.0
0.17350000000000002,-0.8715426779563293,-0.37704126609254557,0.0,-0.26600647671016686,0.19078533011347873,0.0
0.17400000000000002,-0.866287628319772,-0.38080535074277005,0.0,-0.2664409346440634,0.19059586830344377,0.0
0.17450000000000002,-0.8610240287740591,-0.38456567699792,0.0,-0.26687276291350137,0.19040452538913533,0.0
0.17500000000000002,-0.8557519312687917,-0.3883222077450932,0.0,-0.26730195725651035,0.19021130325903074,0.0
0.17550000000000002,-0.8504713878374437,-0.39207490590884825,0.0,-0.26772851343711535,0.19001620382015436,0.0
0.176,-0.8451824505968469,-0.3958237344515687,0.0,-0.2681524272453791,0.18981922899805895,0.0
0.1765,-0.8398851717466753,-0.39956865637383093,0.0,-0.2685736944974435,0.18962038073680643,0.0
0.177,-0.8345796035689353,-0.40330963471476716,0.0,-0.26899231103557075,0.18941966099894889,0.0
0.1775,-0.8292657984274415,-0.4070466325524314,0.0,-0.26940827272818463,0.1892170717655091,0.0
0.178,-0.8239438087673054,-0.4107796130041637,0.0,-0.26982157546991126,0.189012615035961,0.0
0.1785,-0.8186136871144164,-0.41450853922695413,0.0,-0.27023221518161933,0.18880629282820996,0.0
0.179,-0.8132754860749216,-0.4182333744178063,0.0,-0.27064018781046084,0.18859810717857292,0.0
0.1795,-0.8079292583347135,-0.4219540818141005,0.0,-0.2710454893299104,0.18838806014175813,0.0
0.18,-0.8025750566588998,-0.42567062469395706,0.0,-0.2714481157398058,0.1881761537908451,0.0
0.1805,-0.7972129338912881,-0.42938296637659795,0.0,-0.271848063066387,0.18796239021726394,0.0
0.181,-0.7918429429538684,-0.4330910702227095,0.0,-0.2722453273623351,0.18774677153077485,0.0
0.1815,-0.7864651368462814,-0.436794899634804,0.0,-0.27263990470681204,0.18752929985944713,0.0
0.182,-0.7810795686453027,-0.44049441805758044,0.0,-0.27303179120549864,0.1873099773496385,0.0
0.1825,-0.7756862915043159,-0.4441895889782855,0.0,-0.2734209829906335,0.18708880616597348,0.0
0.183,-0.7702853586527895,-0.4478803759270738,0.0,-0.2738074762210507,0.18686578849132243,0.0
0.1835,-0.764876823395748,-0.4515667424773684,0.0,-0.27419126708221836,0.18664092652677974,0.0
0.184,-0.7594607391132547,-0.4552486522462196,0.0,-0.27457235178627526,0.1864142224916422,0.0
0.1845,-0.754037159259873,-0.4589260688946644,0.0,-0.2749507265720693,0.18618567862338717,0.0
0.185,-0.748606137364145,-0.4625989561280852,0.0,-0.27532638770519435,0.1859552971776503,0.0
0.1855,-0.7431677270280672,-0.46626727769656756,0.0,-0.27569933147802644,0.18572308042820349,0.0
0.186,-0.7377219819265526,-0.46993099739525895,0.0,-0.2760695542097611,0.1854890306669323,0.0
0.1865,-0.7322689558069069,-0.4735900790647249,0.0,-0.2764370522464495,0.18525315020381336,0.0
0.187,-0.7268087024882962,-0.4772444865913065,0.0,-0.27680182196103437,0.18501544136689163,0.0
0.1875,-0.7213412758612165,-0.48089418390747696,0.0,-0.2771638597533859,0.18477590650225736,0.0
0.188,-0.7158667298869599,-0.4845391349921969,0.0,-0.2775231620503374,0.184534547974023,0.0
0.1885,-0.7103851185970878,-0.48817930387127095,0.0,-0.27787972530571997,0.1842913681642997,0.0
0.189,-0.7048964960928893,-0.49181465461770174,0.0,-0.27823354600039835,0.1840463694731741,0.0
0.1895,-0.699400916544851,-0.49544515135204503,0.0,-0.2785846206423052,0.18379955431868428,0.0
0.19,-0.6938984341921275,-0.49907075824276353,0.0,-0.2789329457664754,0.18355092513679627,0.0
0.1905,-0.6883891033419967,-0.5026914395065815,0.0,-0.27927851793508074,0.1833004843813796,0.0
0.191,-0.6828729783693298,-0.5063071594088362,0.0,-0.27962133373746323,0.18304823452418353,0.0
0.1915,-0.6773501137160534,-0.5099178822638321,0.0,-0.2799613897901695,0.18279417805481224,0.0
0.192,-0.6718205638906118,-0.5135235724351921,0.0,-0.28029868273698355,0.1825383174807006,0.0
0.1925,-0.6662843834674282,-0.5171241943362102,0.0,-0.2806332092489602,0.18228065532708906,0.0
0.193,-0.6607416270863711,-0.5207197124302015,0.0,-0.2809649660244577,0.18202119413699913,0.0
0.1935,-0.6551923494522068,-0.524310091230854,0.0,-0.28129394978917066,0.18175993647120803,0.0
0.194,-0.6496366053340639,-0.5278952953025791,0.0,-0.28162015729616224,0.18149688490822338,0.0
0.1945,-0.6440744495648967,-0.531475289260859,0.0,-0.2819435853258959,0.181232042044258,0.0
0.195,-0.6385059370409356,-0.5350500377725996,0.0,-0.2822642306862676,0.18096541049320392,0.0
0.1955,-0.6329311227211512,-0.5386195055564754,0.0,-0.28258209021263714,0.18069699288660698,0.0
0.196,-0.6273500616267103,-0.5421836573832809,0.0,-0.28289716076785926,0.1804267918736406,0.0
0.1965,-0.6217628088404324,-0.5457424580762769,0.0,-0.28320943924231484,0.18015481012107962,0.0
0.197,-0.6161694195062456,-0.5492958725115367,0.0,-0.28351892255394145,0.1798810503132742,0.0
0.1975,-0.6105699488286476,-0.552843865618294,0.0,-0.2838256076482636,0.17960551515212314,0.0
0.198,-0.6049644520721515,-0.5563864023792899,0.0,-0.28412949149842326,0.17932820735704721,0.0
0.1985,-0.599352984560746,-0.559923447831117,0.0,-0.28443057110520964,0.17904912966496234,0.0
0.199,-0.5937356016773532,-0.5634549670645643,0.0,-0.2847288434970884,0.17876828483025275,0.0
0.1995,-0.5881123588632724,-0.5669809252249622,0.0,-0.2850243057302315,0.1784856756247436,0.0
0.2,-0.5824833116176402,-0.5705012875125276,0.0,-0.285316954888546,0.1782013048376736,0.0
0.2005,-0.5768485154968805,-0.5740160191827058,0.0,-0.28560678808370293,0.17791517527566764,0.0
0.201,-0.5712080261141559,-0.5775250855465148,0.0,-0.2858938024551656,0.17762728976270892,0.0
0.2015,-0.565561899138818,-0.5810284519708859,0.0,-0.2861779951702181,0.1773376511401113,0.0
0.202,-0.5599101902958638,-0.5845260838790062,0.0,-0.28645936342399286,0.17704626226649106,0.0
0.2025,-0.5542529553653762,-0.5880179467506613,0.0,-0.286737904439499,0.1767531260177387,0.0
0.203,-0.5485902501819786,-0.5915040061225749,0.0,-0.2870136154676492,0.17645824528699067,0.0
0.20350000000000001,-0.5429221306342881,-0.5949842275887479,0.0,-0.2872864937872867,0.1761616229846007,0.0
0.20400000000000001,-0.5372486526643547,-0.5984585768007991,0.0,-0.28755653670521275,0.17586326203811126,0.0
0.20450000000000002,-0.5315698722671156,-0.6019270194683045,0.0,-0.2878237415562128,0.17556316539222436,0.0
0.20500000000000002,-0.5258858454898409,-0.6053895213591357,0.0,-0.28808810570308285,0.17526133600877275,0.0
0.20550000000000002,-0.5201966284315795,-0.6088460482997973,0.0,-0.2883496265366555,0.17495777686669056,0.0
0.20600000000000002,-0.5145022772426061,-0.6122965661757631,0.0,-0.2886083014758258,0.174652490961984,0.0
0.20650000000000002,-0.5088028481238707,-0.6157410409318144,0.0,-0.28886412796757627,0.17434548130770178,0.0
0.20700000000000002,-0.5030983973264364,-0.6191794385723766,0.0,-0.28911710348700287,0.17403675093390514,0.0
0.20750000000000002,-0.49738898115092794,-0.6226117251618531,0.0,-0.28936722553733946,0.17372630288763824,0.0
0.20800000000000002,-0.4916746559469811,-0.626037866824961,0.0,-0.2896144916499822,0.173414140232898,0.0
0.2085,-0.48595547811267725,-0.6294578297470645,0.0,-0.2898588993845144,0.1731002660506038,0.0
0.209,-0.4802315040939926,-0.6328715801745108,0.0,-0.2901004463287305,0.1727846834385671,0.0
0.2095,-0.47450279038423976,-0.6362790844149614,0.0,-0.2903391300986596,0.17246739551146084,0.0
0.21,-0.4687693935235104,-0.6396803088377251,0.0,-0.29057494833858927,0.1721484054007888,0.0
0.2105,-0.4630313700981168,-0.6430752198740906,0.0,-0.29080789872108875,0.1718277162548545,0.0
0.211,-0.45728877674003204,-0.6464637840176557,0.0,-0.2910379789470317,0.17150533123873046,0.0
0.2115,-0.4515416701263375,-0.6498459678246601,0.0,-0.2912651867456193,0.17118125353422664,0.0
0.212,-0.44579010697865346,-0.6532217379143154,0.0,-0.29148951987440214,0.1708554863398591,0.0
0.2125,-0.4400341440625847,-0.6565910609691343,0.0,-0.29171097611930297,0.17052803287081847,0.0
0.213,-0.43427383818716464,-0.659953903735258,0.0,-0.291929553294638,0.17019889635893837,0.0
0.2135,-0.4285092462042851,-0.6633102330227856,0.0,-0.29214524924313867,0.16986808005266332,0.0
0.214,-0.42274042500814174,-0.6666600157061023,0.0,-0.2923580618359731,0.16953558721701667,0.0
0.2145,-0.41696743153467075,-0.6700032187242057,0.0,-0.292567988972767,0.1692014211335685,0.0
0.215,-0.41119032276098705,-0.6733398090810317,0.0,-0.29277502858162413,0.16886558510040306,0.0
0.2155,-0.40540915570482033,-0.6766697538457807,0.0,-0.29297917861914735,0.16852808243208645,0.0
0.216,-0.39962398742395877,-0.6799930201532413,0.0,-0.293180437070458,0.16818891645963385,0.0
0.2165,-0.393834875015676,-0.6833095752041171,0.0,-0.2933788019492165,0.1678480905304764,0.0
0.217,-0.3880418756161728,-0.6866193862653495,0.0,-0.29357427129764163,0.16750560800842837,0.0
0.2175,-0.3822450464000177,-0.6899224206704389,0.0,-0.29376684318652974,0.16716147227365405,0.0
0.218,-0.37644444457957327,-0.6932186458197687,0.0,-0.29395651571527404,0.16681568672263425,0.0
0.2185,-0.3706401274044376,-0.696508029180928,0.0,-0.2941432870118833,0.16646825476813273,0.0
0.219,-0.3648321521608779,-0.6997905382890309,0.0,-0.2943271552330002,0.16611917983916258,0.0
0.2195,-0.35902057617126504,-0.7030661407470383,0.0,-0.2945081185639196,0.1657684653809524,0.0
0.22,-0.3532054567935063,-0.7063348042260759,0.0,-0.2946861752186066,0.16541611485491237,0.0
0.2205,-0.34738685142048537,-0.709596496465754,0.0,-0.2948613234397137,0.16506213173859996,0.0
0.221,-0.3415648174794867,-0.7128511852744879,0.0,-0.2950335614985989,0.16470651952568552,0.0
0.2215,-0.33573941243163313,-0.7160988385298132,0.0,-0.2952028876953419,0.16434928172591806,0.0
0.222,-0.32991069377132404,-0.7193394241787028,0.0,-0.29536930035876163,0.16399042186509044,0.0
0.2225,-0.3240787190256577,-0.7225729102378845,0.0,-0.29553279784643216,0.1636299434850047,0.0
0.223,-0.3182435457538705,-0.7257992647941567,0.0,-0.29569337854469935,0.1632678501434368,0.0
0.2235,-0.31240523154676675,-0.7290184560047024,0.0,-0.2958510408686966,0.16290414541410192,0.0
0.224,-0.30656383402615084,-0.7322304520974043,0.0,-0.2960057832623604,0.16253883288661883,0.0
0.2245,-0.3007194108442562,-0.7354352213711575,0.0,-0.2961576041984457,0.1621719161664747,0.0
0.225,-0.2948720196831835,-0.7386327321961825,0.0,-0.29630650217854126,0.1618033988749895,0.0
0.2255,-0.28902171825432116,-0.7418229530143389,0.0,-0.29645247573308414,0.16143328464928008,0.0
0.226,-0.28316856429778087,-0.7450058523394355,0.0,-0.2965955234213742,0.1610615771422244,0.0
0.2265,-0.27731261558183234,-0.7481813987575405,0.0,-0.2967356438315885,0.16068828002242552,0.0
0.227,-0.27145392990232364,-0.7513495609272924,0.0,-0.29687283558079525,0.16031339697417532,0.0
0.2275,-0.2655925650821172,-0.7545103075802101,0.0,-0.29700709731496727,0.15993693169741813,0.0
0.228,-0.2597285789705175,-0.7576636075210005,0.0,-0.29713842770899535,0.15955888790771422,0.0
0.2285,-0.2538620294427,-0.7608094296278654,0.0,-0.2972668254667016,0.1591792693362032,0.0
0.229,-0.24799297439913848,-0.7639477428528114,0.0,-0.297392289320852,0.15879807972956705,0.0
0.2295,-0.2421214717650401,-0.7670785162219532,0.0,-0.2975148180331688,0.15841532284999343,0.0
0.23,-0.2362475794897638,-0.7702017188358221,0.0,-0.2976344103943433,0.15803100247513813,0.0
0.2305,-0.2303713555462533,-0.7733173198696697,0.0,-0.2977510652240471,0.15764512239808803,0.0
0.231,-0.22449285793046986,-0.7764252885737708,0.0,-0.2978647813709441,0.15725768642732377,0.0
0.2315,-0.2186121446608101,-0.7795255942737288,0.0,-0.2979755577127018,0.15686869838668202,0.0
0.232,-0.21272927377753986,-0.7826182063707786,0.0,-0.2980833931560025,0.15647816211531765,0.0
0.2325,-0.2068443033422197,-0.7857030943420876,0.0,-0.2981882866365539,0.15608608146766595,0.0
0.233,-0.20095729143713195,-0.7887802277410564,0.0,-0.29829023711909963,0.1556924603134047,0.0
0.2335,-0.19506829616470583,-0.7918495761976212,0.0,-0.2983892435974297,0.1552973025374157,0.0
0.234,-0.18917737564695047,-0.794911109418551,0.0,-0.29848530509439003,0.15490061203974678,0.0
0.23450000000000001,-0.1832845880248715,-0.7979647971877496,0.0,-0.2985784206618925,0.15450239273557292,0.0
0.23500000000000001,-0.17738999145790196,-0.8010106093665518,0.0,-0.298668589380924,0.15410264855515787,0.0
0.23550000000000001,-0.1714936441233337,-0.8040485158940204,0.0,-0.2987558103615557,0.15370138344381531,0.0
0.23600000000000002,-0.1655956042157327,-0.8070784867872444,0.0,-0.29884008274295176,0.15329860136186998,0.0
0.23650000000000002,-0.15969592994637175,-0.8101004921416345,0.0,-0.2989214056933777,0.15289430628461834,0.0
0.23700000000000002,-0.1537946795426541,-0.8131145021312185,0.0,-0.29899977841020897,0.15248850220228957,0.0
0.23750000000000002,-0.14789191124753878,-0.8161204870089335,0.0,-0.2990752001199384,0.1520811931200062,0.0
0.23800000000000002,-0.14198768331896414,-0.8191184171069233,0.0,-0.29914767007818416,0.15167238305774436,0.0
0.23850000000000002,-0.1360820540292796,-0.8221082628368274,0.0,-0.2992171875696971,0.1512620760502944,0.0
0.23900000000000002,-0.13017508166466027,-0.8250899946900759,0.0,-0.29928375190836753,0.1508502761472208,0.0
0.23950000000000002,-0.1242668245245371,-0.8280635832381794,0.0,-0.2993473624372324,0.1504369874128223,0.0
0.24,-0.11835734092102608,-0.8310289991330188,0.0,-0.2994080185284815,0.15002221392609194,0.0
0.2405,-0.11244668917834295,-0.8339862131071372,0.0,-0.2994657195834635,0.1496059597806765,0.0
0.241,-0.1065349276322342,-0.8369351959740255,0.0,-0.2995204650326925,0.14918822908483645,0.0
0.2415,-0.10062211462939961,-0.839875918628414,0.0,-0.2995722543358529,0.14876902596140504,0.0
0.242,-0.09470830852691643,-0.8428083520465578,0.0,-0.29962108698180523,0.14834835454774786,0.0
0.2425,-0.08879356769166169,-0.8457324672865222,0.0,-0.299666962488591,0.14792621899572192,0.0
0.243,-0.08287795049974292,-0.8486482354884702,0.0,-0.2997098804034374,0.1475026234716348,0.0
0.2435,-0.0769615153359119,-0.8515556278749472,0.0,-0.299749840302762,0.1470775721562032,0.0
0.244,-0.07104432059299516,-0.8544546157511638,0.0,-0.29978684179217674,0.14665106924451207,0.0
0.2445,-0.06512642467131421,-0.8573451705052807,0.0,-0.29982088450649186,0.14622311894597284,0.0
0.245,-0.05920788597811606,-0.860227263608689,0.0,-0.2998519681097195,0.1457937254842823,0.0
0.2455,-0.053288762926986484,-0.8631008666162928,0.0,-0.29988009229507695,0.14536289309738057,0.0
0.246,-0.04736911393728036,-0.8659659511667911,0.0,-0.29990525678498997,0.14493062603740936,0.0
0.2465,-0.04144899743354336,-0.8688224889829562,0.0,-0.2999274613310952,0.14449692857066998,0.0
0.247,-0.03552847184493366,-0.8716704518719129,0.0,-0.2999467057142427,0.14406180497758134,0.0
0.2475,-0.029607595604651944,-0.8745098117254171,0.0,-0.29996298974449814,0.14362525955263777,0.0
0.248,-0.02368642714935468,-0.8773405405201332,0.0,-0.2999763132611448,0.14318729660436627,0.0
0.2485,-0.017765024918584053,-0.8801626103179111,0.0,-0.2999866761326849,0.14274792045528434,0.0
0.249,-0.011843447354187834,-0.8829759932660617,0.0,-0.2999940782568411,0.1423071354418571,0.0
0.2495,-0.005921752899749296,-0.8857806615976306,0.0,-0.29999851956055745,0.14186494591445475,0.0
0.25,-3.4626072486992216e-16,-0.8885765876316731,0.0,-0.3,0.14142135623730953,0.0
0.2505,0.0059217528997486035,-0.8913637437735287,0.0,-0.29999851956055745,0.14097637078847233,0.0
0.251,0.011843447354187141,-0.8941421025150917,0.0,-0.2999940782568411,0.14052999395976984,0.0
0.2515,0.017765024918583363,-0.8969116364350826,0.0,-0.2999866761326849,0.14008223015676124,0.0
0.252,0.02368642714935399,-0.8996723181993195,0.0,-0.2999763132611448,0.13963308379869452,0.0
0.2525,0.02960759560465125,-0.902424120560988,0.0,-0.29996298974449814,0.13918255931846288,0.0
0.253,0.03552847184493296,-0.9051670163609099,0.0,-0.2999467057142427,0.13873066116256105,0.0
0.2535,0.041448997433542675,-0.9079009785278116,0.0,-0.2999274613310952,0.1382773937910413,0.0
0.254,0.04736911393727967,-0.9106259800785895,0.0,-0.29990525678498997,0.13782276167746968,0.0
0.2545,0.05328876292698579,-0.9133419941185784,0.0,-0.29988009229507695,0.13736676930888167,0.0
0.255,0.05920788597811537,-0.9160489938418164,0.0,-0.2998519681097195,0.13690942118573776,0.0
0.2555,0.06512642467131352,-0.9187469525313094,0.0,-0.29982088450649186,0.1364507218218793,0.0
0.256,0.07104432059299447,-0.9214358435592941,0.0,-0.29978684179217674,0.1359906757444838,0.0
0.2565,0.07696151533591122,-0.9241156403875013,0.0,-0.299749840302762,0.13552928749402046,0.0
0.257,0.08287795049974223,-0.9267863165674183,0.0,-0.2997098804034374,0.1350665616242049,0.0
0.2575,0.088793567691661,-0.9294478457405496,0.0,-0.299666962488591,0.13460250270195473,0.0
0.258,0.09470830852691574,-0.9321002016386771,0.0,-0.29962108698180523,0.13413711530734404,0.0
0.2585,0.10062211462939892,-0.9347433580841185,0.0,-0.2995722543358529,0.1336704040335586,0.0
0.259,0.1065349276322335,-0.9373772889899864,0.0,-0.2995204650326925,0.13320237348685035,0.0
0.2595,0.11244668917834226,-0.9400019683604465,0.0,-0.2994657195834635,0.13273302828649175,0.0
0.26,0.11835734092102537,-0.9426173702909734,0.0,-0.2994080185284815,0.13226237306473038,0.0
0.2605,0.12426682452453808,-0.9452234689686055,0.0,-0.2993473624372324,0.13179041246674336,0.0
0.261,0.1301750816646596,-0.9478202386722008,0.0,-0.29928375190836753,0.13131715115059128,0.0
0.2615,0.1360820540292789,-0.9504076537726909,0.0,-0.2992171875696971,0.13084259378717225,0.0
0.262,0.14198768331896347,-0.9529856887333332,0.0,-0.29914767007818416,0.13036674506017581,0.0
0.2625,0.1478919112475381,-0.955554318109964,0.0,-0.2990752001199384,0.12988960966603677,0.0
0.263,0.1537946795426534,-0.958113516551248,0.0,-0.29899977841020897,0.12941119231388884,0.0
0.2635,0.15969592994637108,-0.9606632587989292,0.0,-0.2989214056933777,0.1289314977255183,0.0
0.264,0.16559560421573202,-0.9632035196880817,0.0,-0.29884008274295176,0.12845053063531692,0.0
0.2645,0.171493644123333,-0.9657342741473561,0.0,-0.29875581036155574,0.1279682957902357,0.0
0.265,0.17738999145790296,-0.9682554971992274,0.0,-0.298668589380924,0.1274847979497379,0.0
0.2655,0.18328458802487077,-0.9707671639602417,0.0,-0.2985784206618925,0.12700004188575212,0.0
0.266,0.18917737564694978,-0.973269249641262,0.0,-0.29848530509439003,0.1265140323826249,0.0
0.2665,0.19506829616470514,-0.9757617295477132,0.0,-0.29838924359742974,0.12602677423707387,0.0
0.267,0.20095729143713129,-0.9782445790798251,0.0,-0.29829023711909963,0.12553827225814013,0.0
0.2675,0.206844303342219,-0.9807177737328747,0.0,-0.2981882866365539,0.12504853126714102,0.0
0.268,0.21272927377753917,-0.9831812890974291,0.0,-0.2980833931560025,0.12455755609762252,0.0
0.2685,0.21861214466080944,-0.9856351008595863,0.0,-0.29797555771270184,0.12406535159531125,0.0
0.269,0.2244928579304692,-0.9880791848012155,0.0,-0.2978647813709441,0.12357192261806688,0.0
0.2695,0.23037135554625426,-0.9905135168001943,0.0,-0.2977510652240471,0.12307727403583427,0.0
0.27,0.2362475794897631,-0.9929380728306484,0.0,-0.29763441039434335,0.12258141073059528,0.0
0.2705,0.2421214717650394,-0.9953528289631891,0.0,-0.29751481803316887,0.12208433759632052,0.0
0.271,0.2479929743991378,-0.997757761365148,0.0,-0.297392289320852,0.12158605953892113,0.0
0.2715,0.2538620294426993,-1.0001528463008138,0.0,-0.2972668254667016,0.12108658147620029,0.0
0.272,0.2597285789705168,-1.0025380601316645,0.0,-0.29713842770899535,0.12058590833780491,0.0
0.2725,0.26559256508211654,-1.0049133793166025,0.0,-0.29700709731496727,0.12008404506517681,0.0
0.273,0.271453929902323,-1.0072787804121865,0.0,-0.2968728355807953,0.11958099661150381,0.0
0.2735,0.2773126155818317,-1.009634240072863,0.0,-0.29673564383158857,0.11907676794167098,0.0
0.274,0.28316856429778187,-1.0119797350511959,0.0,-0.2965955234213742,0.1185713640322118,0.0
0.2745,0.2890217182543205,-1.0143152421980963,0.0,-0.29645247573308414,0.1180647898712589,0.0
0.275,0.29487201968318283,-1.0166407384630518,0.0,-0.2963065021785413,0.11755705045849466,0.0
0.2755,0.30071941084425713,-1.0189562008943536,0.0,-0.2961576041984457,0.117048150805102,0.0
0.276,0.3065638340261501,-1.0212616066393214,0.0,-0.2960057832623604,0.11653809593371522,0.0
0.2765,0.3124052315467661,-1.0235569329445318,0.0,-0.2958510408686966,0.11602689087836984,0.0
0.277,0.31824354575386976,-1.0258421571560405,0.0,-0.2956933785446994,0.11551454068445353,0.0
0.2775,0.324078719025657,-1.0281172567196073,0.0,-0.29553279784643216,0.11500105040865574,0.0
0.278,0.3299106937713233,-1.0303822091809185,0.0,-0.29536930035876163,0.11448642511891816,0.0
0.2785,0.33573941243163413,-1.032636992185807,0.0,-0.2952028876953419,0.11397066989438472,0.0
0.279,0.341564817479486,-1.0348815834804748,0.0,-0.2950335614985989,0.11345378982535129,0.0
0.2795,0.3473868514204847,-1.0371159609117122,0.0,-0.2948613234397138,0.11293579001321544,0.0
0.28,0.35320545679350723,-1.0393401024271165,0.0,-0.29468617521860657,0.1124166755704261,0.0
0.2805,0.35902057617126437,-1.0415539860753078,0.0,-0.2945081185639196,0.11189645162043341,0.0
0.281,0.3648321521608772,-1.0437575900061495,0.0,-0.29432715523300024,0.11137512329763757,0.0
0.28150000000000003,0.3706401274044369,-1.0459508924709595,0.0,-0.2941432870118833,0.1108526957473388,0.0
0.28200000000000003,0.3764444445795726,-1.0481338718227282,0.0,-0.2939565157152741,0.11032917412568609,0.0
0.28250000000000003,0.38224504640001705,-1.0503065065163308,0.0,-0.29376684318652974,0.10980456359962634,0.0
0.28300000000000003,0.38804187561617376,-1.0524687751087405,0.0,-0.29357427129764163,0.10927886934685377,0.0
0.28350000000000003,0.3938348750156753,-1.0546206562592382,0.0,-0.29337880194921656,0.10875209655575849,0.0
0.28400000000000003,0.39962398742395805,-1.056762128729626,0.0,-0.29318043707045804,0.10822425042537519,0.0
0.28450000000000003,0.4054091557048213,-1.0588931713844358,0.0,-0.29297917861914735,0.107695336165332,0.0
0.28500000000000003,0.4111903227609864,-1.0610137631911363,0.0,-0.2927750285816242,0.10716535899579933,0.0
0.28550000000000003,0.4169674315346701,-1.063123883220343,0.0,-0.292567988972767,0.10663432414743768,0.0
0.28600000000000003,0.4227404250081411,-1.0652235106460224,0.0,-0.2923580618359731,0.10610223686134682,0.0
0.28650000000000003,0.4285092462042845,-1.0673126247456999,0.0,-0.29214524924313867,0.10556910238901332,0.0
0.28700000000000003,0.434273838187164,-1.0693912049006629,0.0,-0.291929553294638,0.10503492599225912,0.0
0.28750000000000003,0.4400341440625857,-1.071459230596164,0.0,-0.29171097611930297,0.10449971294318972,0.0
0.28800000000000003,0.4457901069786528,-1.0735166814216248,0.0,-0.2914895198744022,0.10396346852414187,0.0
0.2885,0.4515416701263368,-1.075563537070836,0.0,-0.2912651867456193,0.10342619802763145,0.0
0.289,0.4572887767400314,-1.077599777342159,0.0,-0.29103797894703176,0.10288790675630133,0.0
0.2895,0.4630313700981145,-1.0796253821387245,0.0,-0.2908078987210888,0.10234860002286905,0.0
0.29,0.4687693935235097,-1.0816403314686305,0.0,-0.2905749483385893,0.10180828315007429,0.0
0.2905,0.4745027903842391,-1.083644605445141,0.0,-0.29033913009865964,0.10126696147062651,0.0
0.291,0.48023150409399185,-1.0856381842868805,0.0,-0.2901004463287305,0.10072464032715218,0.0
0.2915,0.4859554781126766,-1.0876210483180309,0.0,-0.2898588993845144,0.10018132507214204,0.0
0.292,0.49167465594698045,-1.0895931779685248,0.0,-0.2896144916499822,0.09963702106789826,0.0
0.2925,0.4973889811509272,-1.091554553774239,0.0,-0.28936722553733946,0.09909173368648155,0.0
0.293,0.5030983973264358,-1.0935051563771858,0.0,-0.2891171034870029,0.09854546830965832,0.0
0.2935,0.5088028481238701,-1.0954449665257049,0.0,-0.28886412796757627,0.09799823032884736,0.0
0.294,0.5145022772426053,-1.0973739650746532,0.0,-0.2886083014758258,0.09745002514506654,0.0
0.2945,0.520196628431579,-1.0992921329855945,0.0,-0.2883496265366556,0.09690085816887962,0.0
0.295,0.5258858454898401,-1.1011994513269854,0.0,-0.2880881057030829,0.09635073482034305,0.0
0.2955,0.531569872267115,-1.1030959012743635,0.0,-0.2878237415562129,0.09579966052895222,0.0
0.296,0.5372486526643541,-1.104981464110534,0.0,-0.28755653670521275,0.09524764073358788,0.0
0.2965,0.5429221306342874,-1.1068561212257526,0.0,-0.2872864937872867,0.09469468088246252,0.0
0.297,0.5485902501819779,-1.108719854117911,0.0,-0.2870136154676492,0.09414078643306656,0.0
0.2975,0.5542529553653756,-1.1105726443927175,0.0,-0.28673790443949904,0.09358596285211468,0.0
0.298,0.5599101902958632,-1.11241447376388,0.0,-0.2864593634239929,0.09303021561549171,0.0
0.2985,0.5655618991388173,-1.1142453240532864,0.0,-0.2861779951702181,0.09247355020819843,0.0
0.299,0.5712080261141552,-1.1160651771911834,0.0,-0.2858938024551656,0.0919159721242976,0.0
0.2995,0.5768485154968798,-1.1178740152163555,0.0,-0.285606788083703,0.09135748686685989,0.0
0.3,0.5824833116176396,-1.119671820276301,0.0,-0.2853169548885461,0.09079809994790938,0.0
0.3005,0.5881123588632717,-1.1214585746274104,0.0,-0.2850243057302315,0.09023781688836907,0.0
0.301,0.5937356016773524,-1.123234260635139,0.0,-0.28472884349708844,0.08967664321800654,0.0
0.3015,0.5993529845607454,-1.1249988607741839,0.0,-0.28443057110520964,0.0891145844753793,0.0
0.302,0.6049644520721509,-1.126752357628653,0.0,-0.2841294914984233,0.08855164620778032,0.0
0.3025,0.6105699488286468,-1.1284947338922404,0.0,-0.2838256076482636,0.08798783397118307,0.0
0.303,0.6161694195062449,-1.1302259723683963,0.0,-0.2835189225539415,0.08742315333018666,0.0
0.3035,0.6217628088404318,-1.1319460559704957,0.0,-0.2832094392423149,0.08685760985796095,0.0
0.304,0.6273500616267096,-1.1336549677220076,0.0,-0.2828971607678593,0.08629120913619177,0.0
0.3045,0.6329311227211506,-1.1353526907566631,0.0,-0.2825820902126372,0.0857239567550257,0.0
0.305,0.638505937040935,-1.1370392083186212,0.0,-0.28226423068626766,0.08515585831301459,0.0
0.3055,0.644074449564896,-1.1387145037626347,0.0,-0.281943585325896,0.08458691941706066,0.0
0.306,0.6496366053340632,-1.1403785605542136,0.0,-0.2816201572961623,0.0840171456823613,0.0
0.3065,0.6551923494522063,-1.1420313622697893,0.0,-0.28129394978917066,0.08344654273235307,0.0
0.307,0.6607416270863704,-1.143672892596876,0.0,-0.2809649660244577,0.08287511619865687,0.0
0.3075,0.6662843834674276,-1.145303135334232,0.0,-0.28063320924896024,0.08230287172102183,0.0
0.308,0.6718205638906113,-1.1469220743920203,0.0,-0.28029868273698355,0.08172981494726983,0.0
0.3085,0.6773501137160528,-1.1485296937919653,0.0,-0.27996138979016955,0.08115595153323998,0.0
0.309,0.6828729783693291,-1.1501259776675128,0.0,-0.2796213337374633,0.08058128714273255,0.0
0.3095,0.6883891033419961,-1.1517109102639853,0.0,-0.27927851793508074,0.080005827447453,0.0
0.31,0.6938984341921268,-1.1532844759387382,0.0,-0.2789329457664755,0.07942957812695613,0.0
0.3105,0.6994009165448503,-1.1548466591613131,0.0,-0.27858462064230527,0.07885254486859024,0.0
0.311,0.7048964960928886,-1.156397444513593,0.0,-0.2782335460003984,0.07827473336744048,0.0
0.3115,0.7103851185970871,-1.1579368166899515,0.0,-0.27787972530572,0.07769614932627325,0.0
0.312,0.7158667298869592,-1.1594647604974073,0.0,-0.27752316205033745,0.07711679845547938,0.0
0.3125,0.7213412758612159,-1.1609812608557724,0.0,-0.277163859753386,0.07653668647301798,0.0
0.313,0.7268087024882955,-1.1624863027977996,0.0,-0.2768018219610344,0.07595581910436021,0.0
0.3135,0.7322689558069062,-1.1639798714693328,0.0,-0.27643705224644954,0.07537420208243255,0.0
0.314,0.737721981926552,-1.1654619521294525,0.0,-0.27606955420976115,0.07479184114756014,0.0
0.3145,0.7431677270280667,-1.1669325301506206,0.0,-0.27569933147802644,0.07420874204741021,0.0
0.315,0.7486061373641444,-1.1683915910188258,0.0,-0.2753263877051944,0.07362491053693564,0.0
0.3155,0.7540371592598725,-1.1698391203337266,0.0,-0.27495072657206937,0.07304035237831756,0.0
0.316,0.7594607391132542,-1.1712751038087925,0.0,-0.27457235178627526,0.07245507334090916,0.0
0.3165,0.7648768233957475,-1.1726995272714469,0.0,-0.2741912670822184,0.0718690792011782,0.0
0.317,0.7702853586527887,-1.1741123766632051,0.0,-0.27380747622105084,0.07128237574265016,0.0
0.3175,0.7756862915043153,-1.1755136380398141,0.0,-0.27342098299063355,0.07069496875585139,0.0
0.318,0.781079568645302,-1.1769032975713893,0.0,-0.2730317912054987,0.07010686403825181,0.0
0.3185,0.7864651368462808,-1.1782813415425528,0.0,-0.27263990470681204,0.06951806739420745,0.0
0.319,0.7918429429538677,-1.179647756352567,0.0,-0.27224532736233514,0.06892858463490341,0.0
0.3195,0.7972129338912876,-1.1810025285154688,0.0,-0.27184806306638704,0.0683384215782967,0.0
0.32,0.8025750566588992,-1.182345644660204,0.0,-0.2714481157398059,0.06774758404905827,0.0
0.3205,0.807929258334713,-1.1836770915307588,0.0,-0.27104548932991046,0.06715607787851616,0.0
0.321,0.8132754860749226,-1.1849968559862902,0.0,-0.2706401878104608,0.0665639089045973,0.0
0.3215,0.8186136871144157,-1.1863049250012552,0.0,-0.2702322151816194,0.0659710829717706,0.0
0.322,0.8239438087673048,-1.1876012856655411,0.0,-0.26982157546991126,0.06537760593098856,0.0
0.3225,0.8292657984274409,-1.1888859251845918,0.0,-0.2694082727281847,0.0647834836396299,0.0
0.323,0.8345796035689347,-1.1901588308795334,0.0,-0.2689923110355708,0.06418872196144194,0.0
0.3235,0.8398851717466747,-1.191419990187301,0.0,-0.26857369449744356,0.06359332676648219,0.0
0.324,0.8451824505968448,-1.1926693906607608,0.0,-0.26815242724537924,0.062997303931061,0.0
0.3245,0.8504713878374431,-1.1939070199688355,0.0,-0.26772851343711535,0.062400659337682955,0.0
0.325,0.8557519312687911,-1.1951328658966223,0.0,-0.2673019572565104,0.06180339887498951,0.0
0.3255,0.86102402877406,-1.1963469163455176,0.0,-0.2668727629135013,0.06120552843770012,0.0
0.326,0.8662876283197729,-1.1975491593333332,0.0,-0.2664409346440633,0.06060705392655481,0.0
0.3265,0.8715426779563287,-1.1987395829944163,0.0,-0.2660064767101669,0.06000798124825529,0.0
0.327,0.8767891258185091,-1.1999181755797663,0.0,-0.26556939339973656,0.05940831631540699,0.0
0.3275,0.8820269201259917,-1.2010849254571496,0.0,-0.26512968902660805,0.058808065046460835,0.0
0.328,0.8872560091838615,-1.2022398211112166,0.0,-0.26468736793048603,0.05820723336565436,0.0
0.3285,0.8924763413831203,-1.2033828511436127,0.0,-0.26424243447690116,0.05760582720295387,0.0
0.329,0.8976878652011984,-1.2045140042730935,0.0,-0.26379489305716686,0.057003852493995213,0.0
0.3295,0.9028905292024566,-1.205633269335634,0.0,-0.2633447480883365,0.056401315180025904,0.0
0.33,0.9080842820387048,-1.20674063528454,0.0,-0.262892004013159,0.055798221207845826,0.0
0.3305,0.9132690724496964,-1.2078360911905568,0.0,-0.2624366653000358,0.055194576529749156,0.0
0.331,0.9184448492636444,-1.2089196262419768,0.0,-0.26197873644297603,0.05459038710346501,0.0
0.3315,0.9236115613977214,-1.2099912297447462,0.0,-0.26151822196155267,0.05398565889209927,0.0
0.332,0.9287691578585645,-1.211050891122571,0.0,-0.2610551264008577,0.05338039786407515,0.0
0.3325,0.9339175877427788,-1.2120985999170217,0.0,-0.26058945433145747,0.05277460999307457,0.0
0.333,0.9390568002374399,-1.2131343457876353,0.0,-0.2601212103493471,0.052168301257979416,0.0
0.3335,0.9441867446205967,-1.214158118512018,0.0,-0.2596503990759057,0.05156147764281195,0.0
0.334,0.9493073702617661,-1.2151699079859464,0.0,-0.2591770251578506,0.050954145136676454,0.0
0.3345,0.9544186266224434,-1.2161697042234672,0.0,-0.2587010932671911,0.050346309733699385,0.0
0.335,0.9595204632565889,-1.2171574973569945,0.0,-0.258222608101183,0.04973797743297097,0.0
0.3355,0.9646128298111362,-1.2181332776374096,0.0,-0.2577415743822817,0.049129154238485226,0.0
0.336,0.9696956760264832,-1.2190970354341544,0.0,-0.2572579968580957,0.04851984615908148,0.0
0.3365,0.9747689517369899,-1.220048761235329,0.0,-0.2567718803013399,0.0479100592083844,0.0
0.337,0.9798326068714729,-1.220988445647784,0.0,-0.2562832295097886,0.04729979940474492,0.0
0.3375,0.9848865914537006,-1.221916079397213,0.0,-0.25579204930622773,0.04668907277118111,0.0
0.338,0.9899308556028868,-1.2228316533282462,0.0,-0.25529834453840755,0.04607788533531809,0.0
0.3385,0.994965349534178,-1.223735158404538,0.0,-0.25480212007899494,0.0454662431293293,0.0
0.339,0.9999900235591547,-1.2246265857088583,0.0,-0.25430338082552484,0.044854152189876206,0.0
0.3395,1.0050048280863098,-1.2255059264431793,0.0,-0.2538021317003526,0.04424161855804943,0.0
0.34,1.0100097136215482,-1.2263731719287632,0.0,-0.2532983776506045,0.043628648279308464,0.0
0.3405,1.0150046307686706,-1.227228313606247,0.0,-0.2527921236481297,0.04301524740342267,0.0
0.341,1.0199895302298616,-1.2280713430357275,0.0,-0.2522833746894508,0.042401421984410964,0.0
0.3415,1.0249643628061755,-1.2289022518968449,0.0,-0.25177213579571456,0.04178717808048232,0.0
0.342,1.0299290793980234,-1.2297210319888636,0.0,-0.2512584120126426,0.04117252175397629,0.0
0.3425,1.0348836310056582,-1.2305276752307555,0.0,-0.25074220841048106,0.04055745907130247,0.0
0.343,1.0398279687296528,-1.2313221736612767,0.0,-0.2502235300839514,0.03994199610288141,0.0
0.3435,1.0447620437713934,-1.232104519439049,0.0,-0.24970238215219892,0.039326138923083974,0.0
0.34400000000000003,1.0496858074335476,-1.232874704842635,0.0,-0.24917876975874373,0.038709893610172054,0.0
0.34450000000000003,1.054599211120558,-1.2336327222706158,0.0,-0.24865269807142854,0.03809326624623793,0.0
0.34500000000000003,1.0595022063391135,-1.2343785642416654,0.0,-0.24812417228236855,0.03747626291714492,0.0
0.34550000000000003,1.0643947446986308,-1.2351122233946248,0.0,-0.24759319760789988,0.03685888971246669,0.0
0.34600000000000003,1.0692767779117316,-1.2358336924885744,0.0,-0.2470597792885283,0.03624115272542745,0.0
0.34650000000000003,1.0741482577947186,-1.2365429644029051,0.0,-0.24652392258887718,0.03562305805284204,0.0
0.34700000000000003,1.079009136268054,-1.2372400321373902,0.0,-0.24598563279763566,0.03500461179505517,0.0
0.34750000000000003,1.0838593653568267,-1.2379248888122516,0.0,-0.24544491522750705,0.034385820055881915,0.0
0.34800000000000003,1.0886988971912361,-1.2385975276682313,0.0,-0.24490177521515508,0.03376668894254673,0.0
0.34850000000000003,1.0935276840070547,-1.2392579420666547,0.0,-0.24435621812115274,0.03314722456562393,0.0
0.34900000000000003,1.0983456781461072,-1.2399061254894987,0.0,-0.24380824932992815,0.03252743303897667,0.0
0.34950000000000003,1.1031528320567363,-1.2405420715394544,0.0,-0.24325787424971204,0.03190732047969724,0.0
0.35000000000000003,1.1079490982942737,-1.241165773939991,0.0,-0.24270509831248427,0.0312868930080462,0.0
0.35050000000000003,1.112734429521508,-1.241777226535418,0.0,-0.24214992697392015,0.0306661567473921,0.0
0.35100000000000003,1.1175087785091524,-1.2423764232909447,0.0,-0.2415923657133367,0.030045117824151424,0.0
0.35150000000000003,1.1222720981363106,-1.2429633582927413,0.0,-0.24103242003363823,0.02942378236772744,0.0
0.352,1.127024341390937,-1.243538025747996,0.0,-0.24047009546126313,0.028802156510450524,0.0
0.3525,1.131765461370315,-1.2441004199849732,0.0,-0.2399053975461272,0.028180246387516573,0.0
0.353,1.1364954112814998,-1.2446505354530688,0.0,-0.23933833186157139,0.027558058136927695,0.0
0.3535,1.1412141444417985,-1.2451883667228654,0.0,-0.2387689040043047,0.026935597899430553,0.0
0.354,1.145921614279217,-1.245713908486185,0.0,-0.2381971195943506,0.026312871818456568,0.0
0.3545,1.1506177743329298,-1.246227155556143,0.0,-0.23762298427499012,0.02568988604006059,0.0
0.355,1.155302578253733,-1.2467281028671982,0.0,-0.2370465037127072,0.025066646712860907,0.0
0.3555,1.1599759798045037,-1.2472167454752023,0.0,-0.2364676835971321,0.0244431599879779,0.0
0.356,1.1646379328606546,-1.2476930785574503,0.0,-0.2358865296409858,0.023819432018973997,0.0
0.3565,1.1692883914105916,-1.2481570974127272,0.0,-0.23530304758002318,0.023195468961792365,0.0
0.357,1.1739273095561678,-1.248608797461354,0.0,-0.2347172431729765,0.022571276974696377,0.0
0.3575,1.1785546415131307,-1.2490481742452335,0.0,-0.234129122201499,0.02194686221820913,0.0
0.358,1.183170341611585,-1.2494752234278945,0.0,-0.23353869047010695,0.021322230855052013,0.0
0.3585,1.1877743642964316,-1.2498899407945339,0.0,-0.23294595380612357,0.020697389050084572,0.0
0.359,1.1923666641278263,-1.2502923222520586,0.0,-0.23235091805962016,0.020072342970242997,0.0
0.3595,1.1969471957816242,-1.2506823638291258,0.0,-0.2317535891033594,0.01944709878447992,0.0
0.36,1.2015159140498268,-1.251060061676183,0.0,-0.23115397283273686,0.018821662663702873,0.0
0.3605,1.206072773841029,-1.251425412065505,0.0,-0.2305520751657231,0.01819604078071403,0.0
0.361,1.2106177301808663,-1.251778411391231,0.0,-0.22994790204280494,0.01757023931014863,0.0
0.3615,1.2151507382124516,-1.2521190561693996,0.0,-0.22934145942692752,0.016944264428414724,0.0
0.362,1.2196717531968269,-1.2524473430379848,0.0,-0.22873275330343446,0.016318122313631583,0.0
0.3625,1.2241807305134007,-1.2527632687569275,0.0,-0.22812178968000923,0.015691819145569014,0.0
0.363,1.2286776256603849,-1.253066830208169,0.0,-0.22750857458661652,0.015065361105586608,0.0
0.3635,1.2331623942552408,-1.2533580243956794,0.0,-0.2268931140754416,0.014438754376572133,0.0
0.364,1.2376349920351137,-1.2536368484454903,0.0,-0.2262754142208312,0.013812005142881213,0.0
0.3645,1.2420953748572683,-1.253903299605721,0.0,-0.22565548111923353,0.013185119590275574,0.0
0.365,1.2465434986995272,-1.2541573752466053,0.0,-0.225033320889138,0.012558103905862717,0.0
0.3655,1.2509793196607055,-1.25439907286052,0.0,-0.22440893967101475,0.011930964278034133,0.0
0.366,1.2554027939610382,-1.254628390062007,0.0,-0.2237823436272547,0.011303706896404937,0.0
0.3665,1.259813877942621,-1.254845324587798,0.0,-0.2231535389421076,0.010676337951752164,0.0
0.367,1.264212528069837,-1.255049874296837,0.0,-0.22252253182162168,0.010048863635953934,0.0
0.3675,1.2685987009297832,-1.2552420371703006,0.0,-0.2218893284935829,0.009421290141928593,0.0
0.368,1.2729723532327053,-1.2554218113116193,0.0,-0.2212539352074522,0.00879362366357299,0.0
0.3685,1.2773334418124205,-1.2555891949464946,0.0,-0.2206163582343048,0.00816587039570205,0.0
0.369,1.2816819236267456,-1.2557441864229175,0.0,-0.21997660386676812,0.007538036533986907,0.0
0.3695,1.2860177557579204,-1.255886784211185,0.0,-0.2193346784189594,0.006910128274894492,0.0
0.37,1.2903408954130333,-1.2560169869039142,0.0,-0.21869058822642345,0.0062821518156256475,0.0
0.3705,1.294651299924439,-1.2561347932160571,0.0,-0.2180443396460709,0.0056541133540546785,0.0
0.371,1.2989489267501864,-1.2562402019849133,0.0,-0.21739593905611407,0.0050260190886675625,0.0
0.3715,1.3032337334744348,-1.2563332121701407,0.0,-0.21674539285600486,0.004397875218501039,0.0
0.372,1.3075056778078695,-1.256413822853766,0.0,-0.21609270746637205,0.003769687943081692,0.0
0.3725,1.3117647175881253,-1.2564820332401945,0.0,-0.21543788932895666,0.0031414634623641424,0.0
0.373,1.3160108107801995,-1.2565378426562175,0.0,-0.2147809449065494,0.0025132079766705673,0.0
0.3735,1.3202439154768666,-1.256581250551018,0.0,-0.21412188068292648,0.0018849276866287974,0.0
0.374,1.3244639898990918,-1.2566122564961781,0.0,-0.21346070316278573,0.0012566287931118254,0.0
0.3745,1.3286709923964457,-1.2566308601856815,0.0,-0.21279741887168216,0.0006283174971758981,0.0
0.375,1.3328648814475095,-1.2566370614359172,0.0,-0.2121320343559643,2.4492935982947065e-17,0.0
0.3755,1.3370456156602928,-1.2566308601856815,0.0,-0.2114645561827085,-0.0006283174971758491,0.0
0.376,1.341213153772638,-1.2566122564961781,0.0,-0.21079499093965468,-0.0012566287931117764,0.0
0.3765,1.3453674546526238,-1.256581250551018,0.0,-0.21012334523514187,-0.0018849276866287484,0.0
0.377,1.349508477298979,-1.2565378426562175,0.0,-0.20944962569804182,-0.0025132079766705187,0.0
0.3775,1.3536361808414816,-1.2564820332401945,0.0,-0.20877383897769436,-0.003141463462364093,0.0
0.378,1.3577505245413648,-1.256413822853766,0.0,-0.2080959917438416,-0.003769687943081643,0.0
0.3785,1.3618514677917166,-1.2563332121701407,0.0,-0.20741609068656205,-0.00439787521850099,0.0
0.379,1.3659389701178843,-1.2562402019849133,0.0,-0.20673414251620453,-0.005026019088667514,0.0
0.3795,1.3700129911778673,-1.2561347932160571,0.0,-0.20605015396332252,-0.00565411335405463,0.0
0.38,1.3740734907627243,-1.2560169869039142,0.0,-0.20536413177860668,-0.006282151815625599,0.0
0.3805,1.3781204287969646,-1.255886784211185,0.0,-0.20467608273281887,-0.006910128274894444,0.0
0.381,1.3821537653389409,-1.2557441864229175,0.0,-0.20398601361672572,-0.007538036533986859,0.0
0.3815,1.3861734605812517,-1.2555891949464946,0.0,-0.2032939312410307,-0.008165870395702,0.0
0.382,1.3901794748511274,-1.2554218113116193,0.0,-0.20259984243630738,-0.008793623663572942,0.0
0.3825,1.3941717686108241,-1.2552420371703008,0.0,-0.2019037540529321,-0.009421290141928544,0.0
0.383,1.3981503024580149,-1.255049874296837,0.0,-0.20120567296101616,-0.010048863635953885,0.0
0.3835,1.4021150371261777,-1.254845324587798,0.0,-0.2005056060503379,-0.010676337951752116,0.0
0.384,1.4060659334849794,-1.254628390062007,0.0,-0.19980356023027554,-0.011303706896404888,0.0
0.3845,1.4100029525406697,-1.25439907286052,0.0,-0.19909954242973762,-0.011930964278034084,0.0
0.385,1.4139260554364605,-1.2541573752466053,0.0,-0.19839355959709548,-0.01255810390586267,0.0
0.3855,1.417835203452908,-1.253903299605721,0.0,-0.19768561870011506,-0.013185119590275527,0.0
0.386,1.421730358008301,-1.2536368484454903,0.0,-0.19697572672588695,-0.013812005142881162,0.0
0.3865,1.425611480659036,-1.2533580243956794,0.0,-0.19626389068075836,-0.014438754376572086,0.0
0.387,1.4294785330999995,-1.253066830208169,0.0,-0.19555011759026372,-0.01506536110558656,0.0
0.3875,1.4333314771649452,-1.2527632687569275,0.0,-0.19483441449905523,-0.015691819145568966,0.0
0.388,1.4371702748268718,-1.2524473430379848,0.0,-0.1941167884708333,-0.01631812231363154,0.0
0.3885,1.4409948881983936,-1.2521190561693996,0.0,-0.19339724658827742,-0.016944264428414676,0.0
0.389,1.4448052795321225,-1.251778411391231,0.0,-0.19267579595297538,-0.017570239310148582,0.0
0.3895,1.4486014112210346,-1.251425412065505,0.0,-0.19195244368535344,-0.01819604078071398,0.0
0.39,1.4523832457988413,-1.251060061676183,0.0,-0.19122719692460688,-0.01882166266370282,0.0
0.3905,1.4561507459403622,-1.2506823638291258,0.0,-0.1905000628286282,-0.019447098784479876,0.0
0.391,1.4599038744618928,-1.2502923222520586,0.0,-0.1897710485739374,-0.02007234297024295,0.0
0.3915,1.4636425943215698,-1.2498899407945339,0.0,-0.18904016135561083,-0.020697389050084523,0.0
0.392,1.467366868619737,-1.2494752234278945,0.0,-0.1883074083872103,-0.02132223085505196,0.0
0.3925,1.471076660599312,-1.2490481742452337,0.0,-0.18757279690071155,-0.021946862218209084,0.0
0.393,1.4747719336461433,-1.248608797461354,0.0,-0.18683633414643377,-0.02257127697469633,0.0
0.3935,1.4784526512893805,-1.2481570974127272,0.0,-0.18609802739296666,-0.023195468961792313,0.0
0.394,1.4821187772018236,-1.2476930785574505,0.0,-0.18535788392710023,-0.02381943201897395,0.0
0.3945,1.4857702752002913,-1.2472167454752023,0.0,-0.1846159110537514,-0.024443159987977848,0.0
0.395,1.4894071092459724,-1.2467281028671982,0.0,-0.18387211609589293,-0.02506664671286086,0.0
0.3955,1.4930292434447834,-1.2462271555561433,0.0,-0.1831265063944808,-0.02568988604006054,0.0
0.396,1.496636642047722,-1.2457139084861852,0.0,-0.1823790893083817,-0.026312871818456526,0.0
0.3965,1.50022926945122,-1.2451883667228654,0.0,-0.18162987221430055,-0.026935597899430504,0.0
0.397,1.5038070901974967,-1.2446505354530688,0.0,-0.1808788625067074,-0.027558058136927646,0.0
0.3975,1.5073700689749037,-1.2441004199849732,0.0,-0.18012606759776523,-0.028180246387516525,0.0
0.398,1.5109181706182808,-1.243538025747996,0.0,-0.17937149491725551,-0.028802156510450472,0.0
0.3985,1.514451360109295,-1.2429633582927413,0.0,-0.17861515191250638,-0.029423782367727483,0.0
0.399,1.5179696025767937,-1.2423764232909449,0.0,-0.17785704604831773,-0.030045117824151375,0.0
0.3995,1.5214728632971446,-1.241777226535418,0.0,-0.17709718480688838,-0.030666156747392138,0.0
0.4,1.5249611076945777,-1.2411657739399913,0.0,-0.176335575687742,-0.03128689300804615,0.0
0.4005,1.5284343013415296,-1.2405420715394544,0.0,-0.17557222620765314,-0.03190732047969729,0.0
0.401,1.5318924099589812,-1.2399061254894987,0.0,-0.17480714390057298,-0.032527433038976705,0.0
0.4015,1.5353353994167975,-1.2392579420666547,0.0,-0.17404033631755478,-0.033147224565623974,0.0
0.402,1.5387632357340606,-1.2385975276682313,0.0,-0.17327181102668032,-0.03376668894254677,0.0
0.4025,1.5421758850794118,-1.2379248888122516,0.0,-0.17250157561298343,-0.034385820055881956,0.0
0.403,1.545573313771378,-1.23724003213739,0.0,-0.17172963767837715,-0.03500461179505522,0.0
0.4035,1.5489554882787104,-1.2365429644029053,0.0,-0.1709560048415771,-0.035623058052841994,0.0
0.404,1.552322375220712,-1.2358336924885742,0.0,-0.17018068473802694,-0.03624115272542749,0.0
0.4045,1.5556739413675682,-1.235112223394625,0.0,-0.16940368501982317,-0.03685888971246664,0.0
0.405,1.559010153640674,-1.2343785642416654,0.0,-0.16862501335563926,-0.037476262917144954,0.0
0.4055,1.5623309791129611,-1.2336327222706158,0.0,-0.16784467743065024,-0.03809326624623797,0.0
0.406,1.565636385009224,-1.232874704842635,0.0,-0.16706268494645637,-0.038709893610172096,0.0
0.40650000000000003,1.568926338706439,-1.232104519439049,0.0,-0.16627904362100823,-0.03932613892308401,0.0
0.40700000000000003,1.5722008077340928,-1.2313221736612767,0.0,-0.1654937611885289,-0.039941996102881454,0.0
0.40750000000000003,1.5754597597744968,-1.2305276752307555,0.0,-0.1647068453994394,-0.04055745907130251,0.0
0.40800000000000003,1.5787031626631105,-1.2297210319888638,0.0,-0.16391830402028065,-0.04117252175397624,0.0
0.40850000000000003,1.581930984388857,-1.2289022518968449,0.0,-0.16312814483363774,-0.041787178080482365,0.0
0.40900000000000003,1.585143193094439,-1.2280713430357275,0.0,-0.1623363756380628,-0.04240142198441091,0.0
0.40950000000000003,1.5883397570766533,-1.227228313606247,0.0,-0.16154300424799817,-0.04301524740342271,0.0
0.41000000000000003,1.5915206447867039,-1.2263731719287632,0.0,-0.16074803849369912,-0.043628648279308506,0.0
0.41050000000000003,1.5946858248305142,-1.2255059264431793,0.0,-0.15995148622115654,-0.04424161855804947,0.0
0.41100000000000003,1.5978352659690334,-1.2246265857088583,0.0,-0.15915335529202024,-0.04485415218987624,0.0
0.41150000000000003,1.6009689371185505,-1.223735158404538,0.0,-0.15835365358351977,-0.04546624312932934,0.0
0.41200000000000003,1.6040868073509944,-1.2228316533282462,0.0,-0.1575523889883886,-0.04607788533531813,0.0
0.41250000000000003,1.607188845894246,-1.2219160793972133,0.0,-0.1567495694147846,-0.04668907277118106,0.0
0.41300000000000003,1.6102750221324371,-1.2209884456477837,0.0,-0.15594520278621282,-0.04729979940474496,0.0
0.41350000000000003,1.613345305606254,-1.220048761235329,0.0,-0.1551392970414472,-0.047910059208384356,0.0
0.41400000000000003,1.6163996660132387,-1.2190970354341544,0.0,-0.15433186013445202,-0.048519846159081524,0.0
0.41450000000000004,1.6194380732080864,-1.2181332776374094,0.0,-0.1535229000343036,-0.04912915423848527,0.0
0.41500000000000004,1.6224604972029462,-1.2171574973569945,0.0,-0.15271242472511135,-0.04973797743297101,0.0
0.41550000000000004,1.6254669081677116,-1.2161697042234672,0.0,-0.1519004422059398,-0.050346309733699426,0.0
0.41600000000000004,1.6284572764303213,-1.2151699079859464,0.0,-0.15108696049072806,-0.05095414513667649,0.0
0.4165,1.6314315724770463,-1.214158118512018,0.0,-0.1502719876082131,-0.05156147764281191,0.0
0.417,1.6343897669527878,-1.2131343457876353,0.0,-0.14945553160184719,-0.05216830125797937,0.0
0.4175,1.637331830661359,-1.212098599917022,0.0,-0.14863760052972225,-0.05277460999307452,0.0
0.418,1.6402577345657787,-1.211050891122571,0.0,-0.14781820246448749,-0.053380397864075106,0.0
0.4185,1.643167449788557,-1.2099912297447462,0.0,-0.14699734549327106,-0.05398565889209922,0.0
0.419,1.6460609476119799,-1.2089196262419768,0.0,-0.14617503771759982,-0.054590387103464956,0.0
0.4195,1.6489381994783912,-1.207836091190557,0.0,-0.14535128725331958,-0.05519457652974911,0.0
0.42,1.6517991769904772,-1.2067406352845402,0.0,-0.14452610223051482,-0.05579822120784578,0.0
0.4205,1.6546438519115452,-1.2056332693356342,0.0,-0.14369949079342836,-0.05640131518002586,0.0
0.421,1.6574721961658008,-1.2045140042730935,0.0,-0.14287146110038185,-0.05700385249399516,0.0
0.4215,1.6602841818386296,-1.2033828511436127,0.0,-0.14204202132369356,-0.05760582720295382,0.0
0.422,1.6630797811768667,-1.2022398211112166,0.0,-0.14121117964959976,-0.05820723336565431,0.0
0.4225,1.6658589665890762,-1.2010849254571496,0.0,-0.14037894427817205,-0.05880806504646078,0.0
0.423,1.6686217106458199,-1.1999181755797665,0.0,-0.13954532342323758,-0.05940831631540694,0.0
0.4235,1.6713679860799293,-1.1987395829944165,0.0,-0.13871032531229768,-0.06000798124825525,0.0
0.424,1.6740977657867746,-1.1975491593333334,0.0,-0.13787395818644654,-0.06060705392655476,0.0
0.4245,1.6768110228245323,-1.1963469163455178,0.0,-0.13703623030029008,-0.06120552843770008,0.0
0.425,1.6795077304144514,-1.1951328658966225,0.0,-0.13619714992186407,-0.06180339887498946,0.0
0.4255,1.6821878619411152,-1.1939070199688355,0.0,-0.1353567253325536,-0.06240065933768291,0.0
0.426,1.6848513909527094,-1.192669390660761,0.0,-0.1345149648270096,-0.06299730393106094,0.0
0.4265,1.687498291161276,-1.1914199901873013,0.0,-0.13367187671306885,-0.06359332676648215,0.0
0.427,1.6901285364429792,-1.1901588308795337,0.0,-0.1328274693116705,-0.0641887219614419,0.0
0.4275,1.6927421008383607,-1.188885925184592,0.0,-0.1319817509567746,-0.06478348363962984,0.0
0.428,1.6953389585525942,-1.1876012856655414,0.0,-0.13113472999528,-0.0653776059309885,0.0
0.4285,1.6979190839557428,-1.1863049250012552,0.0,-0.13028641478694156,-0.06597108297177055,0.0
0.429,1.7004824515830106,-1.1849968559862902,0.0,-0.12943681370428795,-0.06656390890459726,0.0
0.4295,1.7030290361349945,-1.1836770915307588,0.0,-0.12858593513253855,-0.06715607787851612,0.0
0.43,1.7055588124779317,-1.1823456446602043,0.0,-0.12773378746952188,-0.06774758404905822,0.0
0.4305,1.7080717556439524,-1.1810025285154688,0.0,-0.1268803791255909,-0.06833842157829666,0.0
0.431,1.7105678408313205,-1.1796477563525671,0.0,-0.12602571852354186,-0.06892858463490337,0.0
0.4315,1.7130470434046838,-1.178281341542553,0.0,-0.12516981409852962,-0.0695180673942074,0.0
0.432,1.7155093388953138,-1.1769032975713896,0.0,-0.12431267429798531,-0.07010686403825177,0.0
0.4325,1.717954703001348,-1.175513638039814,0.0,-0.12345430758153275,-0.07069496875585143,0.0
0.433,1.7203831115880301,-1.1741123766632053,0.0,-0.12259472242090491,-0.07128237574265012,0.0
0.4335,1.7227945406879475,-1.172699527271447,0.0,-0.12173392729986023,-0.07186907920117808,0.0
0.434,1.7251889665012694,-1.1712751038087927,0.0,-0.12087193071409885,-0.07245507334090912,0.0
0.4345,1.7275663653959779,-1.1698391203337266,0.0,-0.12000874117117953,-0.0730403523783175,0.0
0.435,1.7299267139081076,-1.1683915910188258,0.0,-0.1191443671904341,-0.07362491053693558,0.0
0.4355,1.73226998874197,-1.1669325301506208,0.0,-0.11827881730288527,-0.07420874204741017,0.0
0.436,1.734596166770389,-1.1654619521294525,0.0,-0.11741210005116073,-0.07479184114756009,0.0
0.4365,1.7369052250349273,-1.163979871469333,0.0,-0.11654422398940989,-0.0753742020824325,0.0
0.437,1.739197140746111,-1.1624863027977996,0.0,-0.11567519768321909,-0.07595581910436024,0.0
0.4375,1.741471891283658,-1.1609812608557726,0.0,-0.1148050297095271,-0.07653668647301794,0.0
0.438,1.7437294541966988,-1.1594647604974078,0.0,-0.11393372865654056,-0.07711679845547925,0.0
0.4385,1.7459698072039993,-1.1579368166899515,0.0,-0.11306130312364884,-0.07769614932627321,0.0
0.439,1.7481929281941784,-1.156397444513593,0.0,-0.11218776172134023,-0.07827473336744044,0.0
0.4395,1.7503987952259312,-1.1548466591613133,0.0,-0.11131311307111522,-0.0788525448685902,0.0
0.44,1.7525873865282389,-1.1532844759387384,0.0,-0.11043736580540335,-0.07942957812695609,0.0
0.4405,1.7547586805005895,-1.1517109102639853,0.0,-0.10956052856747636,-0.08000582744745297,0.0
0.441,1.7569126557131887,-1.150125977667513,0.0,-0.10868261001136377,-0.08058128714273251,0.0
0.4415,1.7590492909071702,-1.1485296937919653,0.0,-0.10780361880176732,-0.08115595153324001,0.0
0.442,1.7611685649948072,-1.1469220743920205,0.0,-0.10692356361397538,-0.08172981494726979,0.0
0.4425,1.7632704570597206,-1.1453031353342324,0.0,-0.10604245313377737,-0.0823028717210217,0.0
0.443,1.7653549463570841,-1.143672892596876,0.0,-0.10516029605737776,-0.08287511619865683,0.0
0.4435,1.7674220123138293,-1.1420313622697895,0.0,-0.1042771010913112,-0.08344654273235302,0.0
0.444,1.7694716345288506,-1.1403785605542136,0.0,-0.10339287695235501,-0.08401714568236125,0.0
0.4445,1.7715037927732034,-1.1387145037626347,0.0,-0.10250763236744495,-0.08458691941706062,0.0
0.445,1.7735184669903061,-1.1370392083186212,0.0,-0.10162137607358743,-0.08515585831301453,0.0
0.4455,1.7755156372961383,-1.1353526907566633,0.0,-0.10073411681777426,-0.08572395675502564,0.0
0.446,1.7774952839794347,-1.1336549677220076,0.0,-0.09984586335689612,-0.08629120913619182,0.0
0.4465,1.7794573875018824,-1.1319460559704957,0.0,-0.09895662445765604,-0.08685760985796091,0.0
0.447,1.7814019284983114,-1.1302259723683965,0.0,-0.09806640889648298,-0.08742315333018653,0.0
0.4475,1.7833288877768878,-1.1284947338922406,0.0,-0.09717522545944486,-0.08798783397118302,0.0
0.448,1.7852382463193,-1.1267523576286531,0.0,-0.09628308294216294,-0.08855164620778028,0.0
0.4485,1.7871299852809517,-1.1249988607741839,0.0,-0.09538999014972317,-0.08911458447537926,0.0
0.449,1.7890040859911416,-1.1232342606351395,0.0,-0.09449595589659139,-0.08967664321800642,0.0
0.4495,1.790860529953253,-1.1214585746274104,0.0,-0.09360098900652446,-0.09023781688836902,0.0
0.45,1.7926992988449335,-1.1196718202763012,0.0,-0.0927050983124843,-0.09079809994790933,0.0
0.4505,1.794520374518276,-1.1178740152163553,0.0,-0.09180829265655034,-0.09135748686685992,0.0
0.451,1.7963237389999995,-1.1160651771911836,0.0,-0.09091058088983237,-0.09191597212429756,0.0
0.4515,1.7981093744916243,-1.1142453240532868,0.0,-0.0900119718723831,-0.09247355020819831,0.0
0.452,1.7998772633696494,-1.1124144737638801,0.0,-0.0891124744731105,-0.09303021561549167,0.0
0.4525,1.8016273881857243,-1.1105726443927177,0.0,-0.08821209756969128,-0.09358596285211464,0.0
0.453,1.8033597316668248,-1.108719854117911,0.0,-0.08731085004848145,-0.09414078643306652,0.0
0.4535,1.8050742767154193,-1.106856121225753,0.0,-0.08640874080443071,-0.09469468088246241,0.0
0.454,1.80677100640964,-1.104981464110534,0.0,-0.08550577874099284,-0.09524764073358784,0.0
0.4545,1.808449904003451,-1.1030959012743635,0.0,-0.08460197277003888,-0.09579966052895218,0.0
0.455,1.81011095292681,-1.1011994513269854,0.0,-0.0836973318117689,-0.09635073482034308,0.0
0.4555,1.811754136785835,-1.0992921329855947,0.0,-0.08279186479462389,-0.09690085816887958,0.0
0.456,1.813379439362965,-1.0973739650746535,0.0,-0.08188558065519755,-0.0974500251450665,0.0
0.4565,1.814986844617119,-1.095444966525705,0.0,-0.08097848833814893,-0.09799823032884732,0.0
0.457,1.8165763366838563,-1.093505156377186,0.0,-0.08007059679611275,-0.09854546830965828,0.0
0.4575,1.8181478998755327,-1.091554553774239,0.0,-0.07916191498961175,-0.09909173368648151,0.0
0.458,1.819701518681453,-1.0895931779685253,0.0,-0.07825245188696903,-0.09963702106789814,0.0
0.4585,1.821237177768027,-1.087621048318031,0.0,-0.07734221646421795,-0.100181325072142,0.0
0.459,1.8227548619789196,-1.0856381842868807,0.0,-0.07643121770501471,-0.10072464032715214,0.0
0.4595,1.8242545563352004,-1.083644605445141,0.0,-0.07551946460054923,-0.10126696147062653,0.0
0.46,1.8257362460354916,-1.0816403314686307,0.0,-0.0746069661494566,-0.10180828315007424,0.0
0.4605,1.8271999164561141,-1.0796253821387245,0.0,-0.07369373135772786,-0.10234860002286904,0.0
0.461,1.8286455531512316,-1.0775997773421593,0.0,-0.07277976923862226,-0.10288790675630129,0.0
0.4615,1.8300731418529934,-1.0755635370708363,0.0,-0.07186508881257664,-0.10342619802763141,0.0
0.462,1.831482668471676,-1.0735166814216248,0.0,-0.07094969910711728,-0.10396346852414191,0.0
0.4625,1.8328741190958198,-1.071459230596164,0.0,-0.07003360915677155,-0.10449971294318974,0.0
0.463,1.8342474799923691,-1.0693912049006626,0.0,-0.06911682800297717,-0.10503492599225916,0.0
0.4635,1.835602737606807,-1.0673126247456999,0.0,-0.06819936469399399,-0.10556910238901328,0.0
0.464,1.836939878563287,-1.0652235106460222,0.0,-0.06728122828481446,-0.10610223686134684,0.0
0.4645,1.8382588896647687,-1.0631238832203427,0.0,-0.0663624278370743,-0.10663432414743773,0.0
0.465,1.8395597578931449,-1.061013763191136,0.0,-0.06544297241896273,-0.10716535899579936,0.0
0.4655,1.8408424704093704,-1.0588931713844358,0.0,-0.06452287110513404,-0.10769533616533206,0.0
0.466,1.8421070145535912,-1.056762128729626,0.0,-0.06360213297661647,-0.10822425042537515,0.0
0.4665,1.8433533778452673,-1.054620656259238,0.0,-0.06268076712072339,-0.10875209655575852,0.0
0.467,1.8445815479832957,-1.0524687751087403,0.0,-0.06175878263096433,-0.10927886934685381,0.0
0.4675,1.845791512846133,-1.0503065065163308,0.0,-0.06083618860695374,-0.10980456359962637,0.0
0.468,1.8469832604919152,-1.0481338718227282,0.0,-0.059912994154322156,-0.11032917412568605,0.0
0.4685,1.8481567791585731,-1.0459508924709593,0.0,-0.05898920838462612,-0.11085269574733886,0.0
0.46900000000000003,1.849312057263952,-1.0437575900061493,0.0,-0.058064840415258244,-0.1113751232976376,0.0
0.46950000000000003,1.8504490834059237,-1.0415539860753078,0.0,-0.05713989936935692,-0.11189645162043343,0.0
0.47000000000000003,1.8515678463624983,-1.0393401024271163,0.0,-0.0562143943757174,-0.11241667557042612,0.0
0.47050000000000003,1.852668335091937,-1.0371159609117124,0.0,-0.05528833456870007,-0.1129357900132154,0.0
0.47100000000000003,1.8537505387328617,-1.0348815834804745,0.0,-0.054361729088141075,-0.11345378982535131,0.0
0.47150000000000003,1.854814446604358,-1.0326369921858067,0.0,-0.05343458707926296,-0.11397066989438474,0.0
0.47200000000000003,1.8558600482060852,-1.0303822091809183,0.0,-0.052506917692582804,-0.11448642511891821,0.0
0.47250000000000003,1.8568873332183775,-1.0281172567196075,0.0,-0.0515787300838229,-0.1150010504086557,0.0
0.47300000000000003,1.8578962915023467,-1.0258421571560403,0.0,-0.05065003341382026,-0.11551454068445355,0.0
0.47350000000000003,1.8588869130999819,-1.0235569329445318,0.0,-0.04972083684843607,-0.11602689087836988,0.0
0.47400000000000003,1.8598591882342483,-1.0212616066393212,0.0,-0.04879114955846503,-0.11653809593371525,0.0
0.47450000000000003,1.8608131073091816,-1.0189562008943533,0.0,-0.047860980719545906,-0.11704815080510203,0.0
0.47500000000000003,1.8617486609099867,-1.016640738463052,0.0,-0.046930339512069326,-0.11755705045849461,0.0
0.47550000000000003,1.8626658398031273,-1.014315242198096,0.0,-0.045999235121088056,-0.11806478987125893,0.0
0.47600000000000003,1.8635646349364174,-1.0119797350511959,0.0,-0.04506767673622703,-0.11857136403221183,0.0
0.47650000000000003,1.864445037439112,-1.0096342400728628,0.0,-0.0441356735515912,-0.11907676794167102,0.0
0.47700000000000004,1.865307038621994,-1.0072787804121868,0.0,-0.04320323476567569,-0.11958099661150377,0.0
0.47750000000000004,1.8661506299774597,-1.0049133793166023,0.0,-0.0422703695812749,-0.12008404506517685,0.0
0.47800000000000004,1.8669758031796033,-1.0025380601316645,0.0,-0.04133708720539157,-0.12058590833780494,0.0
0.47850000000000004,1.867782550084298,-1.0001528463008136,0.0,-0.04040339684914573,-0.12108658147620033,0.0
0.47900000000000004,1.8685708627292776,-0.9977577613651482,0.0,-0.03946930772768476,-0.1215860595389211,0.0
0.47950000000000004,1.8693407333342147,-0.9953528289631892,0.0,-0.03853482906009092,-0.1220843375963205,0.0
0.48,1.8700921543007971,-0.9929380728306486,0.0,-0.037599970069291395,-0.12258141073059525,0.0
0.4805,1.8708251182128035,-0.9905135168001941,0.0,-0.036664739981966746,-0.1230772740358343,0.0
0.481,1.8715396178361758,-0.9880791848012156,0.0,-0.035729148028460896,-0.12357192261806682,0.0
0.4815,1.8722356461190908,-0.9856351008595868,0.0,-0.03479320344268844,-0.12406535159531114,0.0
0.482,1.8729131961920311,-0.9831812890974292,0.0,-0.0338569154620446,-0.12455755609762248,0.0
0.4825,1.8735722613678503,-0.9807177737328749,0.0,-0.03292029332731373,-0.12504853126714097,0.0
0.483,1.8742128351418417,-0.9782445790798253,0.0,-0.03198334628257818,-0.12553827225814007,0.0
0.4835,1.8748349111918006,-0.9757617295477138,0.0,-0.031046083575127024,-0.12602677423707376,0.0
0.484,1.8754384833780877,-0.9732692496412624,0.0,-0.030108514455364527,-0.1265140323826249,0.0
0.4845,1.8760235457436887,-0.9707671639602419,0.0,-0.029170648176719917,-0.1270000418857521,0.0
0.485,1.8765900925142747,-0.9682554971992273,0.0,-0.02823249399555421,-0.12748479794973794,0.0
0.4855,1.8771381180982576,-0.9657342741473565,0.0,-0.027294061171070944,-0.12796829579023566,0.0
0.486,1.8776676170868463,-0.9632035196880819,0.0,-0.026355358965222984,-0.1284505306353169,0.0
0.4865,1.8781785842540992,-0.9606632587989296,0.0,-0.025416396642622123,-0.12893149772551823,0.0
0.487,1.878671014556977,-0.9581135165512481,0.0,-0.024477183470447413,-0.1294111923138888,0.0
0.4875,1.8791449031353913,-0.9555543181099642,0.0,-0.023537728718353686,-0.12988960966603671,0.0
0.488,1.879600245312253,-0.9529856887333338,0.0,-0.02259804165838008,-0.1303667450601757,0.0
0.4885,1.8800370365935193,-0.950407653772691,0.0,-0.021658131564858237,-0.1308425937871722,0.0
0.489,1.8804552726682355,-0.9478202386722009,0.0,-0.020718007714321855,-0.13131715115059125,0.0
0.4895,1.8808549494085813,-0.9452234689686054,0.0,-0.019777679385413263,-0.13179041246674336,0.0
0.49,1.881236062869908,-0.9426173702909736,0.0,-0.018837155858793978,-0.13226237306473035,0.0
0.4905,1.8815986092907802,-0.9400019683604467,0.0,-0.017896446417051234,-0.1327330282864917,0.0
0.491,1.8819425850930105,-0.9373772889899865,0.0,-0.01695556034460744,-0.1332023734868503,0.0
0.4915,1.8822679868816972,-0.9347433580841187,0.0,-0.016014506927628284,-0.13367040403355854,0.0
0.492,1.8825748114452554,-0.9321002016386774,0.0,-0.015073295453931067,-0.13413711530734398,0.0
0.4925,1.882863055755451,-0.9294478457405502,0.0,-0.014131935212893057,-0.13460250270195462,0.0
0.493,1.883132716967429,-0.9267863165674185,0.0,-0.013190435495359523,-0.13506656162420488,0.0
0.4935,1.8833837924197419,-0.9241156403875014,0.0,-0.01224880559355311,-0.13552928749402043,0.0
0.494,1.883616279634376,-0.921435843559294,0.0,-0.011307054800980263,-0.13599067574448384,0.0
0.4945,1.8838301763167773,-0.9187469525313096,0.0,-0.010365192412341642,-0.13645072182187926,0.0
0.495,1.8840254803558714,-0.9160489938418166,0.0,-0.009423227723438508,-0.13690942118573776,0.0
0.4955,1.8842021898240857,-0.9133419941185785,0.0,-0.008481170031082055,-0.13736676930888164,0.0
0.496,1.88436030297737,-0.9106259800785899,0.0,-0.007539028633001381,-0.13782276167746962,0.0
0.4965,1.8844998182552108,-0.9079009785278118,0.0,-0.006596812827751728,-0.1382773937910413,0.0
0.497,1.884620734280649,-0.9051670163609105,0.0,-0.005654531914622707,-0.13873066116256094,0.0
0.4975,1.8847230498602918,-0.9024241205609882,0.0,-0.004712195193546249,-0.13918255931846288,0.0
0.498,1.884806763984326,-0.8996723181993196,0.0,-0.0037698119650058878,-0.13963308379869452,0.0
0.4985,1.884871875826527,-0.8969116364350824,0.0,-0.0028273915299430997,-0.14008223015676127,0.0
0.499,1.8849183847442672,-0.8941421025150919,0.0,-0.0018849431896676414,-0.1405299939597698,0.0
0.4995,1.8849462902785223,-0.8913637437735289,0.0,-0.0009424762457638839,-0.1409763707884723,0.0
0.5,1.8849555921538759,-0.8885765876316735,0.0,-7.347880794884119e-17,-0.1414213562373095,0.0
0.5005000000000001,1.8849462902785223,-0.8857806615976304,0.0,0.0009424762457637369,-0.1418649459144548,0.0
0.501,1.8849183847442672,-0.882975993266062,0.0,0.0018849431896674944,-0.14230713544185705,0.0
0.5015000000000001,1.884871875826527,-0.8801626103179114,0.0,0.002827391529943219,-0.14274792045528428,0.0
0.502,1.884806763984326,-0.8773405405201335,0.0,0.0037698119650057403,-0.14318729660436622,0.0
0.5025000000000001,1.8847230498602918,-0.8745098117254169,0.0,0.004712195193546369,-0.1436252595526378,0.0
0.503,1.884620734280649,-0.8716704518719128,0.0,0.005654531914622561,-0.1440618049775814,0.0
0.5035000000000001,1.8844998182552108,-0.8688224889829561,0.0,0.006596812827751581,-0.14449692857067,0.0
0.504,1.88436030297737,-0.8659659511667912,0.0,0.007539028633001233,-0.14493062603740933,0.0
0.5045000000000001,1.8842021898240857,-0.8631008666162926,0.0,0.008481170031081908,-0.14536289309738062,0.0
0.505,1.8840254803558714,-0.8602272636086893,0.0,0.00942322772343836,-0.14579372548428227,0.0
0.5055000000000001,1.8838301763167773,-0.8573451705052805,0.0,0.01036519241234176,-0.14622311894597287,0.0
0.506,1.8836162796343763,-0.8544546157511645,0.0,0.011307054800980116,-0.14665106924451196,0.0
0.5065000000000001,1.8833837924197419,-0.8515556278749469,0.0,0.012248805593553229,-0.14707757215620323,0.0
0.507,1.883132716967429,-0.8486482354884705,0.0,0.013190435495359377,-0.14750262347163476,0.0
0.5075000000000001,1.882863055755451,-0.8457324672865221,0.0,0.01413193521289291,-0.14792621899572195,0.0
0.508,1.8825748114452554,-0.8428083520465579,0.0,0.015073295453930921,-0.14834835454774783,0.0
0.5085000000000001,1.8822679868816974,-0.8398759186284143,0.0,0.016014506927628135,-0.14876902596140504,0.0
0.509,1.8819425850930105,-0.8369351959740257,0.0,0.016955560344607292,-0.14918822908483642,0.0
0.5095000000000001,1.8815986092907802,-0.8339862131071368,0.0,0.017896446417051088,-0.14960595978067653,0.0
0.51,1.881236062869908,-0.8310289991330191,0.0,0.018837155858793832,-0.1500222139260919,0.0
0.5105000000000001,1.8808549494085813,-0.8280635832381793,0.0,0.019777679385413385,-0.1504369874128223,0.0
0.511,1.8804552726682355,-0.825089994690076,0.0,0.02071800771432171,-0.15085027614722077,0.0
0.5115000000000001,1.880037036593519,-0.8221082628368273,0.0,0.021658131564858355,-0.15126207605029443,0.0
0.512,1.8796002453122531,-0.8191184171069236,0.0,0.022598041658379933,-0.15167238305774433,0.0
0.5125,1.8791449031353915,-0.8161204870089341,0.0,0.023537728718353274,-0.15208119312000612,0.0
0.513,1.878671014556977,-0.8131145021312182,0.0,0.024477183470447268,-0.1524885022022896,0.0
0.5135,1.8781785842540992,-0.8101004921416356,0.0,0.025416396642621974,-0.1528943062846182,0.0
0.514,1.8776676170868463,-0.8070784867872447,0.0,0.026355358965222838,-0.15329860136186993,0.0
0.5145,1.8771381180982578,-0.8040485158940206,0.0,0.027294061171070798,-0.15370138344381526,0.0
0.515,1.8765900925142749,-0.8010106093665514,0.0,0.02823249399555406,-0.15410264855515787,0.0
0.5155,1.876023545743689,-0.7979647971877498,0.0,0.029170648176719507,-0.1545023927355729,0.0
0.516,1.8754384833780877,-0.7949111094185514,0.0,0.03010851445536438,-0.15490061203974675,0.0
0.5165,1.874834911191801,-0.7918495761976215,0.0,0.031046083575126615,-0.1552973025374157,0.0
0.517,1.874212835141842,-0.788780227741057,0.0,0.03198334628257803,-0.15569246031340464,0.0
0.5175,1.8735722613678505,-0.7857030943420884,0.0,0.03292029332731358,-0.15608608146766587,0.0
0.518,1.8729131961920311,-0.7826182063707788,0.0,0.03385691546204445,-0.15647816211531762,0.0
0.5185,1.872235646119091,-0.779525594273729,0.0,0.0347932034426883,-0.156868698386682,0.0
0.519,1.8715396178361758,-0.7764252885737701,0.0,0.03572914802846075,-0.15725768642732385,0.0
0.5195,1.8708251182128037,-0.7733173198696695,0.0,0.0366647399819666,-0.15764512239808803,0.0
0.52,1.8700921543007973,-0.7702017188358224,0.0,0.03759997006929125,-0.1580310024751381,0.0
0.5205,1.869340733334215,-0.7670785162219536,0.0,0.03853482906009077,-0.15841532284999338,0.0
0.521,1.8685708627292774,-0.7639477428528118,0.0,0.03946930772768487,-0.15879807972956703,0.0
0.5215,1.8677825500842982,-0.760809429627866,0.0,0.04040339684914559,-0.1591792693362031,0.0
0.522,1.8669758031796033,-0.7576636075210001,0.0,0.04133708720539143,-0.15955888790771422,0.0
0.5225,1.8661506299774597,-0.7545103075802112,0.0,0.042270369581274746,-0.159936931697418,0.0
0.523,1.865307038621994,-0.7513495609272918,0.0,0.04320323476567554,-0.1603133969741754,0.0
0.5235,1.8644450374391122,-0.7481813987575407,0.0,0.04413567355159105,-0.16068828002242547,0.0
0.524,1.8635646349364174,-0.7450058523394353,0.0,0.04506767673622689,-0.16106157714222444,0.0
0.5245,1.8626658398031275,-0.7418229530143392,0.0,0.04599923512108791,-0.16143328464928008,0.0
0.525,1.861748660909987,-0.7386327321961829,0.0,0.04693033951206919,-0.16180339887498948,0.0
0.5255,1.8608131073091818,-0.7354352213711578,0.0,0.047860980719545754,-0.16217191616647467,0.0
0.526,1.8598591882342481,-0.7322304520974051,0.0,0.04879114955846515,-0.16253883288661874,0.0
0.5265,1.858886913099982,-0.7290184560047035,0.0,0.04972083684843592,-0.1629041454141018,0.0
0.527,1.857896291502347,-0.7257992647941569,0.0,0.05065003341382012,-0.1632678501434368,0.0
0.5275,1.8568873332183777,-0.7225729102378848,0.0,0.051578730083822764,-0.16362994348500468,0.0
0.528,1.8558600482060852,-0.7193394241787022,0.0,0.05250691769258265,-0.16399042186509052,0.0
0.5285,1.8548144466043581,-0.7160988385298128,0.0,0.053434587079262824,-0.1643492817259181,0.0
0.529,1.8537505387328617,-0.712851185274488,0.0,0.05436172908814119,-0.1647065195256855,0.0
0.5295,1.8526683350919373,-0.7095964964657543,0.0,0.05528833456869992,-0.1650621317385999,0.0
0.53,1.851567846362498,-0.7063348042260761,0.0,0.05621439437571752,-0.16541611485491234,0.0
0.5305,1.850449083405924,-0.7030661407470391,0.0,0.05713989936935678,-0.16576846538095236,0.0
0.531,1.8493120572639523,-0.6997905382890311,0.0,0.05806484041525809,-0.16611917983916255,0.0
0.5315,1.8481567791585733,-0.6965080291809291,0.0,0.05898920838462598,-0.1664682547681326,0.0
0.532,1.8469832604919154,-0.6932186458197681,0.0,0.059912994154322004,-0.16681568672263433,0.0
0.5325,1.8457915128461333,-0.6899224206704392,0.0,0.060836188606953584,-0.16716147227365402,0.0
0.533,1.8445815479832959,-0.6866193862653494,0.0,0.06175878263096419,-0.1675056080084284,0.0
0.5335,1.8433533778452675,-0.6833095752041174,0.0,0.06268076712072324,-0.16784809053047636,0.0
0.534,1.8421070145535914,-0.6799930201532414,0.0,0.06360213297661632,-0.16818891645963382,0.0
0.5345,1.8408424704093707,-0.6766697538457809,0.0,0.0645228711051339,-0.16852808243208642,0.0
0.535,1.8395597578931446,-0.6733398090810326,0.0,0.06544297241896284,-0.16886558510040295,0.0
0.5355,1.838258889664769,-0.6700032187242069,0.0,0.06636242783707416,-0.16920142113356837,0.0
0.536,1.8369398785632873,-0.6666600157061026,0.0,0.06728122828481432,-0.16953558721701667,0.0
0.5365,1.8356027376068071,-0.6633102330227858,0.0,0.06819936469399383,-0.1698680800526633,0.0
0.537,1.8342474799923694,-0.6599539037352573,0.0,0.06911682800297703,-0.17019889635893842,0.0
0.5375,1.83287411909582,-0.6565910609691341,0.0,0.07003360915677141,-0.1705280328708185,0.0
0.538,1.8314826684716758,-0.6532217379143157,0.0,0.0709496991071174,-0.17085548633985903,0.0
0.5385,1.8300731418529936,-0.6498459678246603,0.0,0.0718650888125765,-0.1711812535342266,0.0
0.539,1.8286455531512313,-0.6464637840176559,0.0,0.07277976923862237,-0.17150533123873044,0.0
0.5395,1.8271999164561146,-0.6430752198740912,0.0,0.07369373135772772,-0.17182771625485443,0.0
0.54,1.8257362460354918,-0.6396803088377254,0.0,0.07460696614945646,-0.17214840540078877,0.0
0.5405,1.8242545563352006,-0.6362790844149627,0.0,0.0755194646005491,-0.17246739551146073,0.0
0.541,1.8227548619789198,-0.6328715801745102,0.0,0.07643121770501456,-0.17278468343856715,0.0
0.5415,1.8212371777680274,-0.6294578297470648,0.0,0.07734221646421782,-0.17310026605060377,0.0
0.542,1.8197015186814534,-0.6260378668249603,0.0,0.07825245188696887,-0.17341414023289806,0.0
0.5425,1.818147899875533,-0.6226117251618529,0.0,0.0791619149896116,-0.17372630288763827,0.0
0.543,1.8165763366838565,-0.6191794385723767,0.0,0.08007059679611261,-0.17403675093390514,0.0
0.5435,1.8149868446171191,-0.6157410409318147,0.0,0.08097848833814879,-0.17434548130770178,0.0
0.544,1.8133794393629648,-0.6122965661757633,0.0,0.08188558065519766,-0.17465249096198399,0.0
0.5445,1.8117541367858352,-0.6088460482997979,0.0,0.08279186479462376,-0.1749577768666905,0.0
0.545,1.8101109529268102,-0.605389521359136,0.0,0.08369733181176875,-0.17526133600877272,0.0
0.5455,1.8084499040034512,-0.6019270194683048,0.0,0.08460197277003875,-0.17556316539222433,0.0
0.546,1.8067710064096405,-0.5984585768007983,0.0,0.0855057787409927,-0.1758632620381113,0.0
0.5465,1.8050742767154195,-0.5949842275887472,0.0,0.08640874080443056,-0.17616162298460075,0.0
0.547,1.8033597316668246,-0.5915040061225747,0.0,0.08731085004848156,-0.1764582452869907,0.0
0.5475,1.8016273881857245,-0.5880179467506615,0.0,0.08821209756969113,-0.17675312601773868,0.0
0.548,1.7998772633696491,-0.5845260838790065,0.0,0.08911247447311062,-0.17704626226649103,0.0
0.5485,1.7981093744916246,-0.5810284519708863,0.0,0.09001197187238297,-0.17733765114011127,0.0
0.549,1.7963237389999998,-0.5775250855465146,0.0,0.09091058088983223,-0.17762728976270892,0.0
0.5495,1.7945203745182763,-0.5740160191827071,0.0,0.09180829265655019,-0.17791517527566753,0.0
0.55,1.7926992988449337,-0.5705012875125268,0.0,0.09270509831248415,-0.17820130483767366,0.0
0.5505,1.7908605299532534,-0.5669809252249625,0.0,0.09360098900652432,-0.17848567562474357,0.0
0.551,1.7890040859911414,-0.5634549670645637,0.0,0.0944959558965915,-0.17876828483025278,0.0
0.5515,1.787129985280952,-0.5599234478311168,0.0,0.09538999014972303,-0.17904912966496234,0.0
0.552,1.7852382463193004,-0.5563864023792903,0.0,0.09628308294216281,-0.1793282073570472,0.0
0.5525,1.783328887776888,-0.5528438656182944,0.0,0.09717522545944472,-0.1796055151521231,0.0
0.553,1.7814019284983116,-0.549295872511537,0.0,0.09806640889648284,-0.17988105031327417,0.0
0.5535,1.7794573875018826,-0.5457424580762775,0.0,0.09895662445765589,-0.1801548101210796,0.0
0.554,1.7774952839794351,-0.5421836573832811,0.0,0.09984586335689598,-0.18042679187364058,0.0
0.5545,1.7755156372961385,-0.5386195055564758,0.0,0.10073411681777412,-0.18069699288660696,0.0
0.555,1.7735184669903066,-0.5350500377725989,0.0,0.10162137607358729,-0.18096541049320397,0.0
0.5555,1.7715037927732036,-0.5314752892608587,0.0,0.10250763236744483,-0.18123204204425802,0.0
0.556,1.7694716345288504,-0.5278952953025788,0.0,0.10339287695235513,-0.1814968849082234,0.0
0.5565,1.7674220123138296,-0.5243100912308543,0.0,0.10427710109131107,-0.18175993647120803,0.0
0.557,1.765354946357084,-0.5207197124302018,0.0,0.10516029605737785,-0.18202119413699913,0.0
0.5575,1.7632704570597209,-0.5171241943362106,0.0,0.10604245313377723,-0.18228065532708904,0.0
0.558,1.7611685649948077,-0.5135235724351919,0.0,0.10692356361397526,-0.1825383174807006,0.0
0.5585,1.7590492909071707,-0.509917882263833,0.0,0.1078036188017672,-0.18279417805481218,0.0
0.559,1.756912655713189,-0.5063071594088355,0.0,0.10868261001136363,-0.1830482345241836,0.0
0.5595,1.75475868050059,-0.502691439506582,0.0,0.10956052856747622,-0.18330048438137958,0.0
0.56,1.7525873865282386,-0.4990707582427633,0.0,0.11043736580540346,-0.18355092513679627,0.0
0.5605,1.7503987952259314,-0.4954451513520448,0.0,0.11131311307111506,-0.1837995543186843,0.0
0.561,1.7481929281941788,-0.49181465461770174,0.0,0.1121877617213401,-0.1840463694731741,0.0
0.5615,1.7459698072039995,-0.48817930387127123,0.0,0.1130613031236487,-0.1842913681642997,0.0
0.562,1.7437294541966992,-0.4845391349921975,0.0,0.11393372865654043,-0.18453454797402294,0.0
0.5625,1.7414718912836584,-0.48089418390747773,0.0,0.11480502970952698,-0.1847759065022573,0.0
0.5630000000000001,1.7391971407461115,-0.4772444865913066,0.0,0.11567519768321896,-0.18501544136689163,0.0
0.5635,1.7369052250349277,-0.47359007906472517,0.0,0.11654422398940976,-0.18525315020381333,0.0
0.5640000000000001,1.7345961667703895,-0.46993099739525845,0.0,0.11741210005116061,-0.18548903066693231,0.0
0.5645,1.7322699887419704,-0.46626727769656734,0.0,0.11827881730288513,-0.1857230804282035,0.0
0.5650000000000001,1.7299267139081074,-0.46259895612808505,0.0,0.1191443671904342,-0.1859552971776503,0.0
0.5655,1.7275663653959783,-0.4589260688946645,0.0,0.1200087411711794,-0.18618567862338717,0.0
0.5660000000000001,1.725188966501269,-0.45524865224621985,0.0,0.12087193071409895,-0.1864142224916422,0.0
0.5665,1.722794540687948,-0.45156674247736894,0.0,0.1217339272998601,-0.1866409265267797,0.0
0.5670000000000001,1.7203831115880306,-0.4478803759270735,0.0,0.12259472242090476,-0.18686578849132243,0.0
0.5675,1.7179547030013484,-0.44418958897828653,0.0,0.12345430758153263,-0.18708880616597343,0.0
0.5680000000000001,1.7155093388953142,-0.4404944180575797,0.0,0.12431267429798519,-0.18730997734963853,0.0
0.5685,1.713047043404684,-0.4367948996348046,0.0,0.12516981409852948,-0.1875292998594471,0.0
0.5690000000000001,1.71056784083132,-0.4330910702227092,0.0,0.12602571852354194,-0.18774677153077485,0.0
0.5695,1.7080717556439526,-0.42938296637659773,0.0,0.12688037912559078,-0.18796239021726396,0.0
0.5700000000000001,1.705558812477932,-0.42567062469395706,0.0,0.12773378746952177,-0.1881761537908451,0.0
0.5705,1.703029036134995,-0.42195408181410077,0.0,0.12858593513253844,-0.18838806014175813,0.0
0.5710000000000001,1.700482451583011,-0.41823337441780684,0.0,0.1294368137042878,-0.18859810717857287,0.0
0.5715,1.6979190839557432,-0.41450853922695496,0.0,0.13028641478694145,-0.18880629282820993,0.0
0.5720000000000001,1.6953389585525946,-0.4107796130041637,0.0,0.13113472999527986,-0.189012615035961,0.0
0.5725,1.6927421008383612,-0.40704663255243173,0.0,0.13198175095677447,-0.18921707176550906,0.0
0.5730000000000001,1.6901285364429797,-0.40330963471476666,0.0,0.13282746931167036,-0.1894196609989489,0.0
0.5735,1.6874982911612764,-0.39956865637383066,0.0,0.13367187671306874,-0.18962038073680643,0.0
0.5740000000000001,1.6848513909527092,-0.39582373445156877,0.0,0.13451496482700973,-0.18981922899805895,0.0
0.5745,1.6821878619411157,-0.39207490590884825,0.0,0.1353567253325535,-0.19001620382015436,0.0
0.5750000000000001,1.679507730414451,-0.38832220774509346,0.0,0.1361971499218642,-0.1902113032590307,0.0
0.5755,1.6768110228245328,-0.3845656769979203,0.0,0.13703623030028994,-0.19040452538913533,0.0
0.5760000000000001,1.674097765786775,-0.38080535074276955,0.0,0.1378739581864464,-0.19059586830344377,0.0
0.5765,1.6713679860799295,-0.3770412660925464,0.0,0.13871032531229754,-0.19078533011347867,0.0
0.577,1.6686217106458203,-0.37327346019724356,0.0,0.13954532342323744,-0.19097290894932856,0.0
0.5775,1.6658589665890766,-0.36950197024358417,0.0,0.1403789442781719,-0.19115860295966602,0.0
0.578,1.6630797811768672,-0.36572683345465345,0.0,0.14121117964959962,-0.19134241031176608,0.0
0.5785,1.66028418183863,-0.3619480870895254,0.0,0.14204202132369345,-0.19152432919152448,0.0
0.579,1.6574721961658019,-0.3581657684429032,0.0,0.14287146110038149,-0.1917043578034752,0.0
0.5795,1.6546438519115456,-0.3543799148447438,0.0,0.14369949079342823,-0.19188249437080857,0.0
0.58,1.6517991769904783,-0.3505905636598939,0.0,0.14452610223051446,-0.1920587371353886,0.0
0.5805,1.6489381994783918,-0.34679775228771975,0.0,0.14535128725331944,-0.19223308435777037,0.0
0.581,1.6460609476119803,-0.34300151816173846,0.0,0.1461750377175997,-0.19240553431721716,0.0
0.5815,1.6431674497885578,-0.33920189874924717,0.0,0.14699734549327093,-0.19257608531171752,0.0
0.582,1.640257734565779,-0.3353989315509576,0.0,0.14781820246448737,-0.19274473565800193,0.0
0.5825,1.6373318306613593,-0.3315926541006186,0.0,0.1486376005297221,-0.19291148369155964,0.0
0.583,1.6343897669527885,-0.32778310396465404,0.0,0.14945553160184707,-0.19307632776665481,0.0
0.5835,1.6314315724770467,-0.32397031874178484,0.0,0.15027198760821295,-0.19323926625634297,0.0
0.584,1.628457276430322,-0.32015433606266175,0.0,0.15108696049072798,-0.193400297552487,0.0
0.5845,1.625466908167711,-0.31633519358949314,0.0,0.15190044220593987,-0.1935594200657731,0.0
0.585,1.6224604972029466,-0.31251292901567357,0.0,0.15271242472511123,-0.19371663222572622,0.0
0.5855,1.6194380732080869,-0.30868758006541014,0.0,0.1535229000343035,-0.19387193248072587,0.0
0.586,1.616399666013239,-0.3048591844933558,0.0,0.15433186013445188,-0.19402531929802114,0.0
0.5865,1.6133453056062548,-0.301027780084225,0.0,0.15513929704144705,-0.1941767911637462,0.0
0.587,1.6102750221324378,-0.29719340465243566,0.0,0.15594520278621268,-0.1943263465829348,0.0
0.5875,1.6071888458942467,-0.29335609604172314,0.0,0.15674956941478446,-0.19447398407953534,0.0
0.588,1.6040868073509948,-0.2895158921247764,0.0,0.15755238898838847,-0.19461970219642533,0.0
0.5885,1.60096893711855,-0.2856728308028567,0.0,0.15835365358351985,-0.1947634994954258,0.0
0.589,1.5978352659690338,-0.28182695000542785,0.0,0.1591533552920201,-0.19490537455731544,0.0
0.5895,1.5946858248305138,-0.2779782876897805,0.0,0.15995148622115665,-0.19504532598184465,0.0
0.59,1.5915206447867045,-0.27412688184065803,0.0,0.16074803849369898,-0.19518335238774945,0.0
0.5905,1.5883397570766538,-0.27027277046988024,0.0,0.16154300424799803,-0.19531945241276494,0.0
0.591,1.5851431930944395,-0.2664159916159725,0.0,0.16233637563806266,-0.1954536247136387,0.0
0.5915,1.5819309843888576,-0.2625565833437829,0.0,0.1631281448336376,-0.1955858679661444,0.0
0.592,1.578703162663111,-0.2586945837441152,0.0,0.16391830402028054,-0.19571618086509446,0.0
0.5925,1.5754597597744964,-0.25483003093334516,0.0,0.16470684539943953,-0.19584456212435317,0.0
0.593,1.5722008077340934,-0.2509629630530488,0.0,0.1654937611885288,-0.1959710104768494,0.0
0.5935,1.5689263387064385,-0.24709341826962505,0.0,0.16627904362100834,-0.19609552467458888,0.0
0.594,1.5656363850092248,-0.24322143477391858,0.0,0.16706268494645624,-0.1962181034886668,0.0
0.5945,1.5623309791129618,-0.23934705078084229,0.0,0.1678446774306501,-0.19633874570927978,0.0
0.595,1.5590101536406744,-0.23547030452900525,0.0,0.16862501335563915,-0.1964574501457377,0.0
0.5955,1.5556739413675686,-0.23159123428032358,0.0,0.16940368501982303,-0.19657421562647584,0.0
0.596,1.5523223752207125,-0.2277098783196578,0.0,0.1701806847380268,-0.19668904099906592,0.0
0.5965,1.5489554882787109,-0.2238262749544221,0.0,0.17095600484157697,-0.19680192513022798,0.0
0.597,1.5455733137713785,-0.219940462514216,0.0,0.17172963767837704,-0.1969128669058411,0.0
0.5975,1.5421758850794114,-0.21605247935043848,0.0,0.17250157561298354,-0.19702186523095477,0.0
0.598,1.5387632357340613,-0.21216236383591364,0.0,0.17327181102668018,-0.1971289190297996,0.0
0.5985,1.535335399416797,-0.20827015436451118,0.0,0.1740403363175549,-0.19723402724579775,0.0
0.599,1.5318924099589817,-0.20437588935076723,0.0,0.17480714390057284,-0.19733718884157359,0.0
0.5995,1.5284343013415302,-0.20047960722950414,0.0,0.175572226207653,-0.19743840279896385,0.0
0.6,1.5249611076945782,-0.19658134645545566,0.0,0.17633557568774186,-0.19753766811902754,0.0
0.6005,1.5214728632971448,-0.1926811455028797,0.0,0.17709718480688824,-0.19763498382205613,0.0
0.601,1.5179696025767944,-0.18877904286518724,0.0,0.1778570460483176,-0.19773034894758282,0.0
0.6015,1.5144513601092946,-0.18487507705455491,0.0,0.1786151519125065,-0.19782376255439238,0.0
0.602,1.5109181706182813,-0.1809692866015491,0.0,0.1793714949172554,-0.1979152237205302,0.0
0.6025,1.5073700689749032,-0.1770617100547448,0.0,0.18012606759776534,-0.19800473154331152,0.0
0.603,1.5038070901974971,-0.173152385980345,0.0,0.18087886250670726,-0.19809228513933025,0.0
0.6035,1.5002292694512207,-0.16924135296179887,0.0,0.18162987221430046,-0.19817788364446776,0.0
0.604,1.4966366420477224,-0.16532864959942672,0.0,0.18237908930838162,-0.1982615262139013,0.0
0.6045,1.493029243444784,-0.16141431451002672,0.0,0.1831265063944807,-0.19834321202211258,0.0
0.605,1.489407109245973,-0.1574983863265092,0.0,0.18387211609589285,-0.19842294026289556,0.0
0.6055,1.4857702752002917,-0.1535809036975022,0.0,0.18461591105375127,-0.19850071014936477,0.0
0.606,1.4821187772018243,-0.14966190528697992,0.0,0.1853578839271001,-0.19857652091396275,0.0
0.6065,1.4784526512893799,-0.14574142977387342,0.0,0.18609802739296677,-0.1986503718084679,0.0
0.607,1.474771933646144,-0.14181951585169322,0.0,0.18683633414643366,-0.19872226210400168,0.0
0.6075,1.4710766605993113,-0.13789620222814647,0.0,0.18757279690071163,-0.19879219109103594,0.0
0.608,1.4673668686197376,-0.13397152762475464,0.0,0.18830740838721016,-0.19886015807939977,0.0
0.6085,1.4636425943215703,-0.13004553077647055,0.0,0.18904016135561072,-0.19892616239828648,0.0
0.609,1.4599038744618935,-0.12611825043130032,0.0,0.18977104857393728,-0.19899020339626006,0.0
0.6095,1.4561507459403629,-0.12218972534991321,0.0,0.1905000628286281,-0.1990522804412617,0.0
0.61,1.4523832457988415,-0.11825999430526798,0.0,0.19122719692460674,-0.199112392920616,0.0
0.6105,1.4486014112210341,-0.11432909608222247,0.0,0.19195244368535355,-0.19917054024103714,0.0
0.611,1.4448052795321231,-0.11039706947715514,0.0,0.1926757959529753,-0.19922672182863452,0.0
0.6115,1.4409948881983932,-0.10646395329758117,0.0,0.19339724658827753,-0.19928093712891848,0.0
0.612,1.4371702748268724,-0.1025297863617694,0.0,0.19411678847083316,-0.199333185606806,0.0
0.6125,1.433331477164946,-0.09859460749835806,0.0,0.19483441449905511,-0.1993834667466256,0.0
0.613,1.4294785331000002,-0.09465845554597721,0.0,0.19555011759026364,-0.19943178005212278,0.0
0.6135,1.4256114806590368,-0.09072136935285194,0.0,0.19626389068075825,-0.19947812504646475,0.0
0.614,1.4217303580083016,-0.08678338777644018,0.0,0.1969757267258868,-0.19952250127224505,0.0
0.6145,1.4178352034529087,-0.08284454968302474,0.0,0.19768561870011495,-0.19956490829148832,0.0
0.615,1.4139260554364612,-0.07890489394735073,0.0,0.19839355959709537,-0.19960534568565433,0.0
0.6155,1.4100029525406703,-0.07496445945222863,0.0,0.1990995424297375,-0.19964381305564238,0.0
0.616,1.40606593348498,-0.07102328508815613,0.0,0.19980356023027543,-0.199680310021795,0.0
0.6165,1.402115037126177,-0.06708140975293307,0.0,0.200505606050338,-0.19971483622390196,0.0
0.617,1.3981503024580155,-0.06313887235127762,0.0,0.20120567296101602,-0.1997473913212035,0.0
0.6175,1.3941717686108248,-0.05919571179444112,0.0,0.20190375405293198,-0.19977797499239403,0.0
0.618,1.3901794748511278,-0.055251966999828615,0.0,0.20259984243630727,-0.19980658693562495,0.0
0.6185,1.3861734605812523,-0.05130767689060683,0.0,0.2032939312410306,-0.19983322686850805,0.0
0.619,1.3821537653389415,-0.04736288039532899,0.0,0.20398601361672564,-0.19985789452811786,0.0
0.6195,1.3781204287969642,-0.043417616447542814,0.0,0.20467608273281893,-0.1998805896709946,0.0
0.62,1.374073490762725,-0.0394719239854107,0.0,0.20536413177860657,-0.19990131207314632,0.0
0.6205,1.370012991177867,-0.03552584195132432,0.0,0.2060501539633226,-0.19992006153005132,0.0
0.621,1.365938970117885,-0.03157940929152024,0.0,0.20673414251620445,-0.19993683785666,0.0
0.6215,1.3618514677917173,-0.02763266495569446,0.0,0.20741609068656197,-0.1999516408873968,0.0
0.622,1.3577505245413655,-0.023685647896623554,0.0,0.20809599174384147,-0.1999644704761618,0.0
0.6225,1.3536361808414823,-0.019738397069766846,0.0,0.20877383897769425,-0.19997532649633212,0.0
0.623,1.3495084772989796,-0.01579095143290312,0.0,0.2094496256980417,-0.19998420884076323,0.0
